File: data/Dy_deconvoluated_TGA.csv
temperature,rate_3,rate_10,rate_5,rate_3_diff,rate_3_diff_reaction_0,rate_3_diff_reaction_1,rate_3_diff_reaction_2,rate_3_diff_reaction_3,rate_3_diff_cumulative,rate_5_diff,rate_5_diff_reaction_0,rate_5_diff_reaction_1,rate_5_diff_reaction_2,rate_5_diff_reaction_3,rate_5_diff_cumulative,rate_10_diff,rate_10_diff_reaction_0,rate_10_diff_reaction_1,rate_10_diff_reaction_2,rate_10_diff_reaction_3,rate_10_diff_cumulative
31.63192,99.99894,99.96317,100.076,-8.37775e-05,0.000143658,9.8096e-17,0.000893215,5.78137e-05,0.00109469,0.0325895,0.00326064,7.50602e-10,0.000328678,2.42664e-05,0.00361358,-0.008095,0.000718724,7.3496e-13,0.00150237,5.43664e-05,0.00227546
34.49666,100.0006,99.98113,100.032,0.00296358,0.000151892,2.60357e-16,0.000928694,5.99736e-05,0.00114056,0.00352914,0.00340026,1.17561e-09,0.000341962,2.51792e-05,0.0037674,-0.000691205,0.000749617,1.38383e-12,0.00155226,5.62327e-05,0.00235811
37.36141,99.99758,99.99625,100.0493,-0.00168605,0.000160675,6.8167e-16,0.000965819,6.22269e-05,0.00118872,-0.000544511,0.00354693,1.83156e-09,0.00035587,2.61316e-05,0.00392893,-0.00333012,0.000782067,2.58566e-12,0.00160409,5.81731e-05,0.00244433
40.22615,99.98793,99.99171,100.038,0.00178029,0.000170047,1.76061e-15,0.00100468,6.45782e-05,0.0012393,0.00261812,0.00370105,2.83841e-09,0.000370436,2.71255e-05,0.00409862,0.00481724,0.000816164,4.79433e-12,0.00165794,6.01911e-05,0.0025343
43.0909,99.99208,99.98998,100.046,0.00270704,0.000180054,4.48578e-15,0.00104536,6.70325e-05,0.00129245,0.000329967,0.00386308,4.37553e-09,0.000385696,2.81631e-05,0.00427694,0.00544028,0.000852004,8.82173e-12,0.00171392,6.229e-05,0.00262822
45.95564,99.99343,99.98957,100.052,-0.00103152,0.000190745,1.12745e-14,0.00108797,6.95948e-05,0.00134831,-0.00290091,0.00403347,6.70942e-09,0.000401687,2.92465e-05,0.00446441,-0.00509992,0.000889691,1.61082e-11,0.00177211,6.44737e-05,0.00272628
48.82039,100.0,99.99414,100.05,-0.000183245,0.000202174,2.79538e-14,0.00113261,7.22707e-05,0.00140705,-0.00614194,0.00421273,1.02339e-08,0.00041845,3.0378e-05,0.00466157,0.00550831,0.000929334,2.91884e-11,0.00183262,6.67461e-05,0.0028287
51.68513,100,99.99875,100.044,0.00217819,0.0002144,6.83707e-14,0.00117939,7.50658e-05,0.00146885,0.00147137,0.0044014,1.55272e-08,0.000436028,3.15601e-05,0.00486901,0.00275936,0.000971051,5.24856e-11,0.00189556,6.91112e-05,0.00293572
54.54988,99.99778,99.98497,100.038,-0.00630948,0.000227486,1.64963e-13,0.00122842,7.79863e-05,0.0015339,0.0052412,0.00460005,2.3434e-08,0.000454465,3.27952e-05,0.00508734,0.00594817,0.00101497,9.3657e-11,0.00196103,7.15735e-05,0.00304757
57.41462,100.007,99.98492,100.04,0.00197923,0.000241502,3.92631e-13,0.00127985,8.10385e-05,0.00160239,-0.000450266,0.0048093,3.51803e-08,0.000473811,3.40862e-05,0.00531723,-0.0029322,0.00106122,1.65847e-10,0.00202915,7.41374e-05,0.0031645
60.27937,100.012,99.98661,100.042,0.000429362,0.000256523,9.2187e-13,0.00133379,8.42292e-05,0.00167454,0.00191643,0.00502979,5.25355e-08,0.000494117,3.54359e-05,0.00555939,0.0027594,0.00110994,2.91437e-10,0.00210005,7.68077e-05,0.00328679
63.14411,100.017,99.9925,100.046,-0.00490617,0.000272633,2.1352e-12,0.00139039,8.75658e-05,0.00175059,0.000293171,0.00526222,7.80379e-08,0.000515437,3.68473e-05,0.00581459,-0.00137711,0.00116129,5.08217e-10,0.00217385,7.95895e-05,0.00341474
66.00886,100.015,99.98916,100.056,0.00270703,0.000289922,4.87859e-12,0.00144981,9.10557e-05,0.00183079,-0.00404221,0.00550737,1.15308e-07,0.00053783,3.83237e-05,0.00608364,-0.00179601,0.00121544,8.79475e-10,0.0022507,8.24882e-05,0.00354864
68.8736,100.018,99.9854,100.064,-0.00243999,0.000308489,1.0996e-11,0.0015122,9.47071e-05,0.0019154,-0.00291128,0.00576602,1.69477e-07,0.000561358,3.98685e-05,0.00636741,0.0055293,0.00127256,1.51031e-09,0.00233075,8.55093e-05,0.00368882
71.73835,100.034,99.9799,100.057,-0.00450823,0.000328443,2.44489e-11,0.00157774,9.85284e-05,0.00200471,-0.00250811,0.00603904,2.47778e-07,0.000586087,4.14853e-05,0.00666686,-0.00427791,0.00133284,2.57381e-09,0.00241414,8.86587e-05,0.00383564
74.60309,100.032,99.98603,100.055,0.00383802,0.000349903,5.36251e-11,0.0016466,0.000102529,0.00209903,0.00293222,0.00632737,3.60341e-07,0.000612086,4.31779e-05,0.006983,0.00261278,0.00139648,4.35266e-09,0.00250103,9.19428e-05,0.00398946
77.46784,100.027,99.98579,100.058,0.000183257,0.000373001,1.16028e-10,0.00171898,0.000106718,0.0021987,-0.00314162,0.006632,5.21272e-07,0.000639432,4.49505e-05,0.00731691,-0.00247667,0.00146369,7.30471e-09,0.0025916,9.5368e-05,0.00415067
80.33258,100.026,99.99966,100.06,0.0017279,0.000397879,2.47653e-10,0.0017951,0.000111106,0.00230409,0.00161267,0.00695401,7.50093e-07,0.000668205,4.68072e-05,0.00766977,-0.00283276,0.00153472,1.21652e-08,0.00268603,9.89413e-05,0.0043197
83.19733,100.012,99.98791,100.06,0.00754514,0.000424696,5.21446e-10,0.00187517,0.000115704,0.00241557,1.5787e-05,0.00729454,1.07366e-06,0.000698491,4.87527e-05,0.00804285,0.00175929,0.00160981,2.0105e-08,0.0027845,0.00010267,0.004497
86.06207,100.006,99.98576,100.052,0.00589588,0.000453627,1.08308e-09,0.00195943,0.000120523,0.00253358,0.00313638,0.00765483,1.52868e-06,0.00073038,5.07917e-05,0.00843753,0.0035134,0.00168922,3.29729e-08,0.00288722,0.000106562,0.00468304
88.92682,100.01,99.97739,100.049,-0.00379617,0.000484862,2.21919e-09,0.00204814,0.000125575,0.00265857,0.00169129,0.00803623,2.16504e-06,0.000763971,5.29296e-05,0.0088553,0.000439813,0.00177326,5.36635e-08,0.0029944,0.000110626,0.00487834
91.79156,100.02,99.97932,100.046,0.00211535,0.000518615,4.48554e-09,0.00214155,0.000130874,0.00279105,-0.00251332,0.00844018,3.05011e-06,0.000799368,5.51717e-05,0.00929777,-0.00234574,0.00186223,8.667e-08,0.00310626,0.000114869,0.00508345
94.65631,100.014,99.98955,100.05,-0.00215205,0.000555119,8.94378e-09,0.00223998,0.000136432,0.00293154,-0.0,0.00886821,4.2743e-06,0.000836684,5.75238e-05,0.00976669,-0.000397923,0.00195647,1.38908e-07,0.00322304,0.000119302,0.00529895
97.52105,100.0209,99.97785,100.046,0.00285362,0.000594634,1.75918e-08,0.00234371,0.000142266,0.00308063,0.00335109,0.00932201,5.95819e-06,0.000876037,5.99921e-05,0.010264,0.00525182,0.00205634,2.2093e-07,0.00334499,0.000123933,0.00552548
100.3858,100.021,99.9766,100.0408,-0.000900594,0.000637445,3.4134e-08,0.0024531,0.00014839,0.00323897,0.000633566,0.00980339,8.26158e-06,0.000917557,6.25831e-05,0.0107918,0.000879664,0.00216223,3.487e-07,0.00347238,0.000128773,0.00576372
103.251,100.017,99.972,100.033,0.00289033,0.000683871,6.53352e-08,0.00256848,0.000154821,0.00340724,0.00357099,0.0103143,1.13949e-05,0.000961381,6.53039e-05,0.0113524,0.00213108,0.00227456,5.46155e-07,0.00360548,0.000133834,0.00601441
106.115,100.033,99.96197,100.028,0.00208402,0.000734264,1.23365e-07,0.00269025,0.000161576,0.00358621,-0.00397942,0.0108568,1.56336e-05,0.00100766,6.81619e-05,0.0119483,0.0019635,0.00239378,8.48885e-07,0.00374459,0.000139125,0.00627835
108.98,100.021,99.96071,100.035,-7.10543e-15,0.000789018,2.29786e-07,0.00281881,0.000168675,0.00377673,-0.00272275,0.0114333,2.13357e-05,0.00105654,7.1165e-05,0.0125823,0.00196353,0.0025204,1.30933e-06,0.00389003,0.000144661,0.0065564
111.845,100.018,99.95654,100.039,0.00106292,0.000848568,4.22221e-07,0.0029546,0.000176138,0.00397972,0.00126189,0.0120462,2.89638e-05,0.0011082,7.43217e-05,0.0132576,0.00107862,0.00265494,2.00411e-06,0.00404213,0.000150452,0.00684953
114.71,100.018,99.95528,100.036,-0.000916318,0.0009134,7.65316e-07,0.00309809,0.000183985,0.00419624,0.00127236,0.0126981,3.91113e-05,0.00116283,7.76408e-05,0.0139777,0.000638803,0.00279797,3.0441e-06,0.00420125,0.000156513,0.00715878
117.574,100.018,99.95904,100.034,0.00428311,0.00098406,1.36844e-06,0.00324978,0.00019224,0.00442745,-4.38661e-09,0.013392,5.25351e-05,0.00122061,8.1132e-05,0.0147463,0.000445079,0.00295013,4.58845e-06,0.00436776,0.000162859,0.00748534
120.439,100.007,99.95235,100.033,-0.00306304,0.00106115,2.41378e-06,0.00341023,0.000200927,0.00467472,0.00041889,0.0141311,7.01933e-05,0.00128176,8.48055e-05,0.0155678,0.00119907,0.00311209,6.86344e-06,0.00454205,0.000169505,0.00783051
123.304,100.013,99.95235,100.027,0.00738292,0.00114536,4.20005e-06,0.00358001,0.000210072,0.00493964,0.00332489,0.0149187,9.32916e-05,0.00134651,8.86723e-05,0.0164471,-0.000654511,0.00328458,1.01879e-05,0.00472456,0.000176466,0.00819579
126.1685,99.99029,99.95403,100.023,0.00170178,0.00123743,7.20933e-06,0.00375976,0.000219703,0.0052241,0.00083778,0.0157585,0.000123336,0.0014151,9.27439e-05,0.0173897,-0.000219917,0.0034684,1.50072e-05,0.00491572,0.000183761,0.0085829
129.033,99.99207,99.95021,100.024,0.00417316,0.00133824,1.22074e-05,0.00395015,0.00022985,0.00553045,4.38663e-09,0.0166548,0.000162194,0.00148779,9.70328e-05,0.0184018,0.00393752,0.00366443,2.19372e-05,0.00511603,0.000191407,0.0089938
131.898,99.98107,99.94187,100.008,0.00270705,0.00144873,2.03907e-05,0.00415192,0.000240543,0.00586158,0.00583826,0.0176117,0.000212168,0.00156487,0.000101552,0.0194903,0.00152894,0.00387359,3.18222e-05,0.00532597,0.000199424,0.00943081
134.763,99.96138,99.94149,100.0136,0.00601621,0.00157,3.35993e-05,0.00436585,0.000251818,0.00622127,-0.00148179,0.0186342,0.000276074,0.00164664,0.000106317,0.0206633,0.000439834,0.00409692,4.58088e-05,0.0055461,0.000207833,0.00989666
137.627,99.94548,99.92764,100.0112,0.00108391,0.00170326,5.46148e-05,0.0045928,0.000263711,0.00661439,0.000837771,0.0197275,0.00035733,0.00173344,0.000111341,0.0219296,0.00528845,0.00433554,6.54388e-05,0.00577698,0.000216655,0.0103946
140.492,99.93897,99.92852,99.9968,0.00325161,0.0018499,8.75745e-05,0.00483368,0.00027626,0.00704742,0.0062361,0.0208973,0.00046006,0.00182561,0.000116642,0.0232996,-0.00371761,0.00459067,9.27664e-05,0.00601923,0.000225914,0.0109286
143.357,99.92583,99.92726,99.9956,0.00523609,0.00201147,0.000138525,0.00508949,0.000289508,0.007529,0.00184309,0.0221498,0.000589194,0.00192356,0.000122236,0.0247848,0.0011153,0.00486364,0.000130501,0.00627349,0.000235636,0.0115033
146.222,99.92484,99.92728,99.9864,-0.00289028,0.00218976,0.000216155,0.00536131,0.000303499,0.00807073,0.00194258,0.0234919,0.000750589,0.00202769,0.000128143,0.0263983,0.00328304,0.0051559,0.000182183,0.00654046,0.000245846,0.0121244
149.086,99.9048,99.91684,99.97601,0.0068593,0.00238677,0.000332726,0.0056503,0.000318281,0.00868808,0.0039742,0.024931,0.000951143,0.00213846,0.000134382,0.028155,0.00338772,0.00546905,0.000252388,0.00682088,0.000256573,0.0127989
151.951,99.89381,99.90554,99.95841,0.00093723,0.0026048,0.000505236,0.00595772,0.000333905,0.00940166,0.00587485,0.0264753,0.00119892,0.00225636,0.000140976,0.0300716,0.00263898,0.00580482,0.000346975,0.00711554,0.000267846,0.0135352
154.816,99.88041,99.89425,99.93762,0.00683837,0.00284648,0.000756809,0.00628493,0.000350428,0.0102386,0.00670219,0.0281339,0.00150325,0.00238193,0.000147946,0.032167,0.00351864,0.00616514,0.000473365,0.00742526,0.000279699,0.0143435
157.6807,99.86415,99.88548,99.92042,0.00405798,0.00311479,0.00111831,0.00663343,0.000367909,0.0112344,0.00544548,0.0299164,0.00187489,0.00251573,0.000155318,0.0344623,0.00351341,0.00655208,0.000640859,0.00775096,0.000292164,0.0152361
160.545,99.8314,99.87211,99.90683,0.011467,0.00341317,0.00163014,0.00700481,0.000386411,0.0124345,0.00502664,0.0318338,0.00232604,0.0026584,0.000163119,0.0369813,0.00417839,0.00696796,0.000860989,0.00809359,0.00030528,0.0162278
163.41,99.80556,99.86123,99.88963,0.00775461,0.00374556,0.00234408,0.00740084,0.000406005,0.0138965,0.00535649,0.0338978,0.00287051,0.00281062,0.000171377,0.0397503,0.00461822,0.0074153,0.00114789,0.00845417,0.000319084,0.0173364
166.275,99.76863,99.84684,99.88024,0.0106292,0.0041165,0.0033251,0.00782342,0.000426763,0.0156918,0.00397937,0.0361215,0.00352372,0.00297313,0.000180122,0.0427985,0.00507899,0.00789687,0.0015187,0.0088338,0.000333618,0.018583
169.14,99.7321,99.82992,99.85862,0.00774412,0.00453123,0.00465288,0.00827461,0.000448767,0.0179075,0.0163104,0.0385194,0.00430272,0.00314674,0.000189389,0.0461582,0.00678595,0.00841575,0.00199395,0.00923364,0.000348928,0.0199923
172.004,99.69831,99.82066,99.81536,0.0172319,0.00499582,0.00642279,0.00875668,0.000472102,0.0206474,0.00797979,0.0411071,0.00522618,0.00333233,0.000199212,0.0498649,0.00175931,0.00897531,0.00259791,0.00965496,0.00036506,0.0215932
174.869,99.64749,99.80106,99.78184,0.0185043,0.0055173,0.00874604,0.0092721,0.000496861,0.0240323,0.0122523,0.0439022,0.0063143,0.00353086,0.000209631,0.053957,0.00732003,0.00957927,0.00335893,0.0100991,0.000382066,0.0234194
177.734,99.57351,99.76426,99.748,0.031474,0.00610384,0.0117485,0.00982354,0.000523146,0.0281991,0.016745,0.0469239,0.00758867,0.00374339,0.000220687,0.0584766,0.0102575,0.0102318,0.00430971,0.0105675,0.0004,0.0255089
180.599,99.46696,99.74796,99.69729,0.0334898,0.00676499,0.0155683,0.010414,0.000551064,0.0332983,0.0188185,0.0501933,0.00907207,0.00397105,0.000232424,0.0634688,0.0024714,0.0109373,0.00548735,0.0110616,0.000418921,0.0279053
183.4634,99.35734,99.72923,99.6297,0.0431609,0.00751192,0.0203509,0.0110465,0.000580734,0.0394901,0.0312436,0.0537338,0.0107881,0.00421511,0.000244892,0.068982,0.00827824,0.011701,0.00693339,0.0115833,0.000438891,0.0306566
186.328,99.22165,99.70486,99.54109,0.0491248,0.00835772,0.0262429,0.0117248,0.000612281,0.0469377,0.0311441,0.0575715,0.012761,0.00447693,0.000258142,0.0750676,0.00897462,0.0125285,0.00869357,0.0121341,0.000459977,0.0338161
189.193,99.05285,99.6668,99.45144,0.0662049,0.00931781,0.0333829,0.0124527,0.000645845,0.0557992,0.0347098,0.0617347,0.015015,0.00475803,0.000272231,0.08178,0.0137814,0.0134259,0.0108173,0.0127161,0.000482253,0.0374415
192.058,98.86336,99.62543,99.324,0.0687601,0.0104104,0.0418911,0.0132343,0.000681575,0.0662174,0.0440039,0.0662552,0.0175738,0.00506007,0.000287221,0.0891762,0.0111057,0.0144001,0.013357,0.0133312,0.000505794,0.0415941
194.922,98.64732,99.5912,99.184,0.0738547,0.011657,0.0518567,0.0140743,0.000719631,0.0783077,0.0525597,0.0711676,0.0204599,0.00538484,0.000303177,0.0973155,0.0154778,0.0154589,0.0163668,0.0139818,0.000530685,0.0463382
197.787,98.40034,99.53481,99.03024,0.0991136,0.0130834,0.0633247,0.0149779,0.00076019,0.0921461,0.0588796,0.0765107,0.0236942,0.00573436,0.000320173,0.106259,0.024154,0.0166108,0.0199017,0.0146701,0.000557015,0.0517397
200.652,98.08709,99.46486,98.84653,0.116309,0.01472,0.0762826,0.0159506,0.000803442,0.107757,0.0724148,0.0823267,0.0272948,0.00611081,0.000338285,0.116071,0.0297042,0.0178654,0.0240152,0.0153987,0.000584879,0.0578642
203.517,97.73303,99.37113,98.61413,0.134865,0.0166036,0.0906492,0.0169985,0.000849596,0.125101,0.0929717,0.0886625,0.0312765,0.00651663,0.000357599,0.126813,0.0399251,0.0192333,0.0287574,0.0161704,0.000614382,0.0647754
206.381,97.29857,99.25099,98.34164,0.158129,0.0187782,0.106264,0.0181287,0.000898877,0.14407,0.0987418,0.0955695,0.0356497,0.00695449,0.000378207,0.138552,0.0445327,0.0207265,0.0341728,0.0169881,0.000645635,0.072533
209.246,96.82824,99.10292,98.02772,0.184624,0.0212969,0.122884,0.0193484,0.00095153,0.164481,0.123048,0.103104,0.0404197,0.00742734,0.00040021,0.151351,0.0581937,0.0223582,0.0402978,0.017855,0.000678758,0.0811898
212.111,96.25683,98.91548,97.65353,0.200107,0.0242241,0.140181,0.0206662,0.00100782,0.186079,0.140253,0.111328,0.0455858,0.00793845,0.000423715,0.165276,0.0659483,0.0241436,0.0471574,0.0187746,0.000713881,0.0907894
214.9756,95.65537,98.738,97.23304,0.222559,0.0276382,0.157749,0.0220911,0.00106805,0.208546,0.159595,0.120308,0.0511407,0.00849143,0.000448843,0.180389,0.0712683,0.0260992,0.054763,0.0197506,0.000751143,0.101364
217.84,94.96756,98.49105,96.76612,0.248153,0.0316347,0.175118,0.0236333,0.00113253,0.231518,0.170963,0.130117,0.0570694,0.00909029,0.000475722,0.196752,0.0882853,0.028244,0.0631092,0.0207871,0.000790695,0.112931
220.705,94.21285,98.21062,96.25151,0.284491,0.036331,0.191769,0.0253042,0.00120161,0.254606,0.195321,0.140831,0.0633489,0.00973949,0.000504494,0.214424,0.125959,0.030599,0.0721717,0.0218884,0.000832702,0.125492
223.57,93.366,97.87083,95.65114,0.296655,0.0418713,0.207163,0.0271164,0.00127568,0.277426,0.224512,0.152532,0.0699479,0.010444,0.000535313,0.23346,0.117021,0.0331881,0.0819049,0.0230592,0.000877338,0.139029
226.435,92.44933,97.47747,94.98345,0.315321,0.0484339,0.220765,0.0290836,0.00135514,0.299638,0.238812,0.165304,0.0768264,0.0112093,0.000568348,0.253908,0.14128,0.0360378,0.0922404,0.0243046,0.000924796,0.153508
229.299,91.56279,97.06054,94.30417,0.339601,0.0562393,0.232078,0.0312216,0.00144047,0.32098,0.251535,0.17923,0.0839355,0.0120415,0.000603784,0.275811,0.15227,0.0391781,0.103086,0.0256302,0.000975282,0.16887
232.164,90.60993,96.57292,93.54285,0.355807,0.0655612,0.240671,0.0335475,0.00153216,0.341311,0.267741,0.19439,0.091218,0.0129475,0.000641823,0.299197,0.168502,0.0426428,0.114327,0.027042,0.00102902,0.185041
235.029,89.59024,96.08171,92.75696,0.37074,0.0767389,0.246205,0.0360808,0.00163076,0.360655,0.283617,0.21085,0.0986087,0.0139349,0.000682687,0.324077,0.195588,0.0464695,0.125825,0.0285465,0.00108625,0.201927
237.894,88.50068,95.51351,91.93111,0.387066,0.0901921,0.24846,0.0388429,0.00173689,0.379231,0.298236,0.228658,0.106035,0.0150124,0.00072662,0.350432,0.204359,0.0507006,0.137421,0.0301507,0.00114725,0.219419
240.7583,87.35135,94.89466,91.04809,0.401669,0.106436,0.247343,0.0418579,0.00185122,0.397488,0.338302,0.24782,0.113418,0.0161895,0.000773888,0.378201,0.220041,0.0553833,0.148938,0.0318624,0.00121229,0.237396
243.623,86.17611,94.2417,89.98974,0.422446,0.126092,0.242901,0.0451529,0.00197447,0.41612,0.397795,0.268282,0.120675,0.017477,0.000824786,0.407259,0.238665,0.0605702,0.160188,0.03369,0.00128169,0.25573
246.488,84.9307,93.55554,88.77253,0.452454,0.149887,0.235311,0.0487581,0.00210746,0.436064,0.450317,0.28989,0.127718,0.0188871,0.000879639,0.437374,0.244975,0.0663195,0.17097,0.0356425,0.00135578,0.274288
249.353,83.57012,92.82278,87.41314,0.483158,0.178609,0.224875,0.0527076,0.0022511,0.458443,0.4995,0.312334,0.134457,0.0204335,0.000938803,0.468163,0.255091,0.0726949,0.181084,0.0377298,0.00143495,0.292944
252.217,82.16853,92.05781,85.96906,0.518041,0.212974,0.211995,0.0570393,0.00240638,0.484414,0.5249,0.335063,0.140804,0.0221315,0.00100267,0.499001,0.274082,0.0797653,0.19033,0.0399627,0.00151959,0.311578
255.082,80.62377,91.29736,84.4609,0.552269,0.253248,0.197149,0.0617963,0.00257439,0.514767,0.547426,0.357157,0.146673,0.0239985,0.00107168,0.5289,0.285544,0.0876039,0.19852,0.042353,0.00161013,0.330087
257.947,79.00217,90.44063,82.84894,0.58257,0.298317,0.180863,0.0670266,0.00275637,0.548963,0.567218,0.377136,0.151978,0.0260543,0.00114631,0.556315,0.310692,0.0962859,0.20548,0.0449134,0.00170708,0.348387
260.812,77.26695,89.52465,81.22216,0.599807,0.343387,0.163677,0.0727847,0.00295366,0.582803,0.575957,0.392672,0.156644,0.0283212,0.0012271,0.578864,0.330391,0.105885,0.211059,0.047658,0.00181094,0.366413
263.676,75.52277,88.54617,79.54016,0.614023,0.374382,0.146121,0.0791316,0.00316777,0.602803,0.588524,0.400187,0.1606,0.0308245,0.00131464,0.592926,0.347711,0.116465,0.215133,0.0506021,0.00192229,0.384122
266.541,73.7818,87.49985,77.85548,0.592943,0.355273,0.128684,0.0861362,0.00340038,0.573493,0.587979,0.394314,0.163786,0.0335931,0.00140958,0.593103,0.38449,0.128073,0.217609,0.0537621,0.00204176,0.401486
269.406,72.1465,86.38605,76.18371,0.497757,0.212628,0.111794,0.0938758,0.00365336,0.421951,0.569674,0.36738,0.166153,0.0366597,0.00151265,0.571705,0.397407,0.140715,0.218432,0.0571564,0.00217005,0.418474
272.2705,71.15643,85.21274,74.57668,0.226586,0.00136014,0.095807,0.102438,0.0039288,0.203534,0.565406,0.30957,0.167663,0.0400617,0.00162468,0.51892,0.428572,0.154331,0.217583,0.0608048,0.00230792,0.435026
275.135,70.57408,83.94623,73.01438,0.194504,0.0,0.0809957,0.111919,0.00422903,0.197144,0.528958,0.212504,0.168294,0.0438417,0.00174655,0.426386,0.45414,0.16874,0.21508,0.0647289,0.00245618,0.451005
278,69.98979,82.62812,71.58872,0.217334,0.0,0.0675479,0.12243,0.00455666,0.194535,0.448244,0.0856815,0.168034,0.0480487,0.0018793,0.303644,0.464596,0.183566,0.210982,0.0689524,0.00261578,0.466117
280.865,69.35345,81.27445,70.54273,0.223758,0.0,0.0555708,0.134092,0.00491463,0.194577,0.299105,0.00234379,0.166889,0.0527382,0.00202405,0.223995,0.47721,0.198106,0.205381,0.0735011,0.0027877,0.479776
283.729,68.6741,79.88261,69.79405,0.242676,0.0,0.045099,0.14704,0.00530622,0.197445,0.232293,0.0,0.164876,0.0579741,0.00218206,0.225032,0.487473,0.21112,0.1984,0.0784032,0.00297307,0.490896
286.594,67.97864,78.48431,69.1432,0.257834,0.0,0.0361054,0.161421,0.00573514,0.203262,0.234984,0.0,0.162027,0.0638295,0.00235477,0.228211,0.495081,0.220497,0.190192,0.0836892,0.00317311,0.497552
289.459,67.2291,77.11504,68.4466,0.258201,0.0,0.0285142,0.177398,0.00620555,0.212117,0.246791,0.0,0.158386,0.0703879,0.00254376,0.231317,0.479467,0.222759,0.18093,0.0893926,0.00338919,0.496471
292.324,66.45933,75.74424,67.74423,0.281397,0.0,0.0222145,0.195138,0.00672216,0.224075,0.244503,0.0,0.154008,0.0777449,0.00275084,0.234504,0.468832,0.212394,0.170804,0.0955495,0.00362279,0.482371
295.188,65.62534,74.42426,67.02808,0.282936,0.0,0.0170725,0.214818,0.0072903,0.239181,0.258871,0.0,0.148961,0.0860095,0.00297804,0.237948,0.44659,0.181447,0.160013,0.102199,0.0038756,0.447535
298.0532,64.73659,73.16873,66.26983,0.306001,0.0,0.0129432,0.236605,0.00791597,0.257465,0.259411,0.0,0.143318,0.0953054,0.00322764,0.241851,0.417608,0.121642,0.148758,0.109384,0.00414944,0.383933
300.918,63.83053,72.06844,65.5119,0.325793,0.0,0.00967994,0.260648,0.00860602,0.278934,0.269432,0.0,0.13716,0.105773,0.00350223,0.246435,0.352136,0.0393794,0.137238,0.117149,0.00444638,0.298212
303.783,62.8393,71.1627,64.74074,0.332391,0.0,0.00714148,0.287043,0.00936819,0.303552,0.296074,0.0,0.130574,0.117568,0.00380476,0.251946,0.292513,3.92998e-06,0.125642,0.125543,0.00476868,0.255957
306.647,61.81956,70.39522,63.94571,0.36975,0.0,0.00519743,0.315788,0.0102113,0.331196,0.292445,0.0,0.123647,0.130864,0.00413854,0.25865,0.24299,0.0,0.114147,0.134617,0.00511889,0.253883
309.512,60.75658,69.725,63.10061,0.388663,0.0,0.00373142,0.346706,0.0111454,0.361583,0.305069,0.0,0.116469,0.145849,0.00450738,0.266825,0.232131,0.0,0.102912,0.144425,0.00549983,0.252836
312.377,59.62109,69.07069,62.24894,0.385369,0.0,0.00264268,0.379319,0.0121821,0.394144,0.31375,0.0,0.109128,0.162715,0.00491559,0.276759,0.230293,0.0,0.0920729,0.155022,0.00591466,0.253009
315.242,58.44321,68.36367,61.34036,0.418357,0.0,0.00184629,0.412635,0.0133343,0.427815,0.327746,0.0,0.10171,0.181653,0.00536811,0.288731,0.246299,0.0,0.0817462,0.166464,0.0063669,0.254577
318.106,57.22518,67.64761,60.419,0.437531,0.0,0.00127245,0.44481,0.0146173,0.4607,0.334575,0.0,0.0942948,0.202822,0.00587059,0.302988,0.262186,0.0,0.0720232,0.178804,0.00686052,0.257688
320.971,55.92537,66.89054,59.4376,0.459523,0.0,0.000865102,0.472598,0.0160481,0.489511,0.34224,0.0,0.0869588,0.226308,0.0064295,0.319697,0.269726,0.0,0.0629717,0.192093,0.00739994,0.262464
323.836,54.55603,66.10654,58.4355,0.486844,0.0,0.0005802,0.490467,0.0176467,0.508694,0.353105,0.0,0.0797698,0.252046,0.00705229,0.338868,0.275852,0.0,0.054637,0.20637,0.00799013,0.268997
326.701,53.13858,65.2836,57.40036,0.499935,0.0,0.000383861,0.489296,0.0194358,0.509115,0.372656,0.0,0.0727886,0.279681,0.00774753,0.360218,0.293597,0.0,0.0470432,0.221661,0.00863668,0.277341
329.5654,51.70864,64.43078,56.32021,0.492253,0.0,0.000250527,0.45478,0.0214415,0.476472,0.386275,0.0,0.0660675,0.308329,0.00852513,0.382922,0.305839,0.0,0.0401953,0.237968,0.00934591,0.287509
332.43,50.37344,63.53758,55.21202,0.42731,0.0,0.000161295,0.36722,0.023694,0.391075,0.397904,0.0,0.0596503,0.336152,0.00939653,0.405198,0.299828,0.0,0.0340818,0.255253,0.0101249,0.299459
335.295,49.48016,62.62666,54.02068,0.115952,0.0,0.000102441,0.211517,0.0262279,0.237848,0.413571,0.0,0.0535718,0.359623,0.010375,0.42357,0.322249,0.0,0.0286773,0.273423,0.0109816,0.313081
338.16,49.39721,61.67884,52.82981,0.0333066,0.0,6.41813e-05,0.0347678,0.0290829,0.0639149,0.418472,0.0,0.0478586,0.372288,0.011476,0.431623,0.335983,0.0,0.0239454,0.2923,0.0119253,0.32817
341.024,49.29872,60.68638,51.64382,0.033736,0.0,3.9667e-05,0.0,0.0323046,0.0323442,0.411089,0.0,0.0425289,0.362823,0.0127174,0.41807,0.344622,0.0,0.0198415,0.311583,0.012966,0.34439
343.889,49.19848,59.66826,50.48839,0.0439567,0.0,2.41844e-05,0.0,0.0359448,0.035969,0.38528,0.0,0.037593,0.312984,0.0141203,0.364698,0.358917,0.0,0.0163154,0.330788,0.0141154,0.361219
346.754,49.05141,58.61133,49.55302,0.0557013,0.0,1.45455e-05,0.0,0.0400626,0.0400771,0.252981,0.0,0.0330544,0.201038,0.015709,0.249802,0.374075,0.0,0.0133133,0.34917,0.0153868,0.37787
349.619,48.89267,57.49693,49.23322,0.0587957,0.0,8.62987e-06,0.0,0.0447237,0.0447323,0.0263898,0.0,0.0289103,0.0441099,0.0175122,0.0905324,0.394443,0.0,0.0107806,0.365602,0.0167952,0.393178
352.483,48.72406,56.39249,49.13993,0.0599112,0.0,5.05086e-06,0.0,0.0500008,0.0500058,0.0360399,0.0,0.0251521,0.0,0.0195636,0.0447157,0.395135,0.0,0.00866306,0.378414,0.0183576,0.405435
355.3481,48.52503,55.2283,49.02886,0.0663252,0.0,2.91617e-06,0.0,0.0559716,0.0559745,0.0383385,0.0,0.0217669,0.0,0.0219023,0.0436692,0.402544,0.0,0.00690824,0.385168,0.0200934,0.41217
358.213,48.31722,54.0846,48.91253,0.0734516,0.0,1.6609e-06,0.0,0.0627153,0.062717,0.04569,0.0,0.0187378,0.0,0.0245747,0.0433125,0.398213,0.0,0.00546677,0.382379,0.0220248,0.409871
361.078,48.10098,52.95805,48.78096,0.0807297,0.0,9.3317e-07,0.0,0.0703054,0.0703063,0.0445537,0.0,0.016045,0.0,0.0276346,0.0436796,0.383971,0.0,0.00429303,0.365228,0.0241769,0.393698
363.942,47.87967,51.86558,48.64301,0.0782374,0.0,5.17204e-07,0.0,0.0787955,0.0787961,0.0517062,0.0,0.0136666,0.0,0.0311452,0.0448118,0.365053,0.0,0.00334553,0.327502,0.0265783,0.357426
366.807,47.62491,50.85116,48.49624,0.0883429,0.0,2.82781e-07,0.0,0.0881942,0.0881945,0.0526015,0.0,0.0115793,0.0,0.0351797,0.046759,0.331867,0.0,0.00258722,0.262555,0.0292614,0.294403
369.672,47.3629,50.03442,48.33525,0.0975376,0.0,1.52518e-07,0.0,0.0984189,0.098419,0.0592566,0.0,0.00975892,0.0,0.0398224,0.0495813,0.252483,0.0,0.00198551,0.167784,0.032263,0.202032
372.537,47.05944,49.50667,48.15623,0.11412,0.0,8.11481e-08,0.0,0.109214,0.109214,0.0692417,0.0,0.0081813,0.0,0.0451686,0.0533499,0.0807825,0.0,0.00151209,0.0595776,0.0356246,0.0967143
375.401,46.76233,49.40958,47.95108,0.107628,0.0,4.25912e-08,0.0,0.120002,0.120002,0.0685925,0.0,0.00682247,0.0,0.0513237,0.0581461,0.0410665,0.0,0.00114276,0.000980413,0.0393924,0.0415156
378.266,46.42206,49.27104,47.73563,0.11678,0.0,2.2052e-08,0.0,0.129624,0.129624,0.0829498,0.0,0.00565928,0.0,0.0583981,0.0640574,0.0506485,0.0,0.000857033,0.0,0.043618,0.044475
381.131,46.08341,49.11203,47.51386,0.121529,0.0,1.12631e-08,0.0,0.135881,0.135881,0.0765147,0.0,0.00466961,0.0,0.0664974,0.071167,0.0663725,0.0,0.000637837,0.0,0.0483572,0.0489951
383.996,45.70809,48.91085,47.26259,0.136326,0.0,5.67489e-09,0.0,0.134778,0.134778,0.0862224,0.0,0.00383266,0.0,0.0757,0.0795326,0.0554291,0.0,0.000471076,0.0,0.0536697,0.0541408
386.8603,45.31348,48.72661,47.00396,0.136672,0.0,2.82059e-09,0.0,0.119575,0.119575,0.0916626,0.0,0.00312909,0.0,0.0860137,0.0891428,0.0798186,0.0,0.000345255,0.0,0.0596162,0.0599614
389.725,44.94382,48.50418,46.73625,0.0759757,0.0,1.38295e-09,0.0,0.0812902,0.0812902,0.0963279,0.0,0.00254119,0.0,0.0972894,0.0998306,0.0778341,0.0,0.000251106,0.0,0.0662536,0.0665047
392.59,44.89005,48.27253,46.42969,0.00179598,0.0,6.68897e-10,0.0,0.0218614,0.0218614,0.107926,0.0,0.00205284,0.0,0.109055,0.111108,0.0794887,0.0,0.000181236,0.0,0.0736276,0.0738088
395.455,44.87969,48.03105,46.12782,0.00652935,0.0,3.19152e-10,0.0,0.0,3.19152e-10,0.11544,0.0,0.00164958,0.0,0.120192,0.121842,0.0898876,0.0,0.000129807,0.0,0.0817567,0.0818865
398.319,44.86934,47.76885,45.77058,-0.00415218,0.0,1.50217e-10,0.0,0.0,1.50217e-10,0.118864,0.0,0.00131853,0.0,0.128321,0.129639,0.0948985,0.0,9.22619e-05,0.0,0.0906082,0.0907004
401.184,44.86658,47.49645,45.42293,0.00395843,0.0,6.97473e-11,0.0,0.0,6.97473e-11,0.120152,0.0,0.00104835,0.0,0.128674,0.129723,0.0962965,0.0,6.5075e-05,0.0,0.100053,0.100118
404.049,44.85279,47.19613,45.0592,0.000188496,0.0,3.19462e-11,0.0,0.0,3.19462e-11,0.117691,0.0,0.000829132,0.0,0.112467,0.113296,0.108209,0.0,4.55486e-05,0.0,0.109794,0.109839
406.914,44.84796,46.89518,44.75791,0.00165453,0.0,1.44344e-11,0.0,0.0,1.44344e-11,0.0496854,0.0,0.00065229,0.0,0.0676058,0.0682581,0.101931,0.0,3.16376e-05,0.0,0.119233,0.119265
409.778,44.84279,46.53218,44.71299,0.0003613,0.0,6.4337e-12,0.0,0.0,6.4337e-12,0.00870753,0.0,0.000510454,0.0,0.00632515,0.0068356,0.121204,0.0,2.18073e-05,0.0,0.127261,0.127283
412.643,44.82521,46.18898,44.6975,0.00669174,0.0,2.82885e-12,0.0,0.0,2.82885e-12,0.0057021,0.0,0.000397349,0.0,0.0,0.000397349,0.127839,0.0,1.49165e-05,0.0,0.131894,0.131908
415.508,44.81555,45.82808,44.6866,0.00231957,0.0,1.22699e-12,0.0,0.0,1.22699e-12,0.0046025,0.0,0.000307672,0.0,0.0,0.000307672,0.145678,0.0,1.01252e-05,0.0,0.129723,0.129733
418.372,44.80832,45.48561,44.66784,0.00144518,0.0,5.25001e-13,0.0,0.0,5.25001e-13,0.00397949,0.0,0.000236976,0.0,0.0,0.000236976,0.11999,0.0,6.82033e-06,0.0,0.115297,0.115303
421.237,44.7959,45.13042,44.66975,0.00216771,0.0,2.21597e-13,0.0,0.0,2.21597e-13,0.00711587,0.0,0.000181559,0.0,0.0,0.000181559,0.0875206,0.0,4.55907e-06,0.0,0.0816304,0.081635
424.102,44.78279,45.04665,44.6582,0.00877561,0.0,9.22682e-14,0.0,0.0,9.22682e-14,-0.000418885,0.0,0.000138367,0.0,0.0,0.000138367,0.00816302,0.0,3.02425e-06,0.0,0.0288551,0.0288582
426.967,44.77004,45.02142,44.64714,0.000722585,0.0,3.78987e-14,0.0,0.0,3.78987e-14,0.00250805,0.0,0.000104893,0.0,0.0,0.000104893,0.00448727,0.0,1.99079e-06,0.0,3.34631e-06,5.3371e-06
429.831,44.75935,45.01532,44.63702,0.0063304,0.0,1.53562e-14,0.0,0.0,1.53562e-14,0.00942493,0.0,7.90973e-05,0.0,0.0,7.90973e-05,0.000774971,0.0,1.30048e-06,0.0,0.0,1.30048e-06
432.696,44.75108,45.02656,44.6274,0.00144516,0.0,6.13799e-15,0.0,0.0,6.13799e-15,0.0018431,0.0,5.93302e-05,0.0,0.0,5.93302e-05,-0.00121998,0.0,8.43041e-07,0.0,0.0,8.43041e-07
435.561,44.7387,45.01407,44.61274,0.010158,0.0,2.42022e-15,0.0,0.0,2.42022e-15,0.0100532,0.0,4.42679e-05,0.0,0.0,4.42679e-05,0.00437737,0.0,5.4233e-07,0.0,0.0,5.4233e-07
438.426,44.73384,45.0094,44.60102,0.000528845,0.0,9.41388e-16,0.0,0.0,9.41388e-16,0.000209445,0.0,3.28551e-05,0.0,0.0,3.28551e-05,0.00152894,0.0,3.46215e-07,0.0,0.0,3.46215e-07
441.29,44.71281,44.99607,44.60422,0.00180644,0.0,3.61217e-16,0.0,0.0,3.61217e-16,-0.000979199,0.0,2.42558e-05,0.0,0.0,2.42558e-05,0.00266518,0.0,2.1933e-07,0.0,0.0,2.1933e-07
444.1552,44.70936,44.99981,44.58751,-0.00136143,0.0,1.36726e-16,0.0,0.0,1.36726e-16,0.00633563,0.0,1.78126e-05,0.0,0.0,1.78126e-05,-0.00372283,0.0,1.37885e-07,0.0,0.0,1.37885e-07
447.02,44.71074,45.00278,44.57097,0.00324641,0.0,5.10529e-17,0.0,0.0,5.10529e-17,0.00357625,0.0,1.30119e-05,0.0,0.0,1.30119e-05,0.00244522,0.0,8.60213e-08,0.0,0.0,8.60213e-08
449.885,44.69764,44.99814,44.56502,0.00852954,0.0,1.8805e-17,0.0,0.0,1.8805e-17,0.00356054,0.0,9.4548e-06,0.0,0.0,9.4548e-06,0.00240339,0.0,5.32553e-08,0.0,0.0,5.32553e-08
452.749,44.68384,44.98812,44.55183,0.00361292,0.0,6.83303e-18,0.0,0.0,6.83303e-18,0.00105247,0.0,6.83383e-06,0.0,0.0,6.83383e-06,0.00280655,0.0,3.27181e-08,0.0,0.0,3.27181e-08
455.614,44.68143,44.981,44.55229,0.00198971,0.0,2.44927e-18,0.0,0.0,2.44927e-18,0.00397418,0.0,4.91332e-06,0.0,0.0,4.91332e-06,0.00171219,0.0,1.99472e-08,0.0,0.0,1.99472e-08
458.479,44.66491,44.98518,44.53784,0.00399516,0.0,8.66057e-19,0.0,0.0,8.66057e-19,0.00481197,0.0,3.51388e-06,0.0,0.0,3.51388e-06,-0.00222533,0.0,1.20683e-08,0.0,0.0,1.20683e-08
461.344,44.66251,44.98184,44.52776,0.00722059,0.0,3.02092e-19,0.0,0.0,3.02092e-19,0.00313641,0.0,2.49975e-06,0.0,0.0,2.49975e-06,0.00284319,0.0,7.24563e-09,0.0,0.0,7.24563e-09
464.208,44.6549,44.9785,44.5206,-0.00434073,0.0,1.03949e-19,0.0,0.0,1.03949e-19,0.00167553,0.0,1.76892e-06,0.0,0.0,1.76892e-06,0.00069114,0.0,4.31694e-09,0.0,0.0,4.31694e-09
467.073,44.65279,44.968,44.50879,0.00323592,0.0,3.52844e-20,0.0,0.0,3.52844e-20,0.00313637,0.0,1.24514e-06,0.0,0.0,1.24514e-06,-0.000507918,0.0,2.55237e-09,0.0,0.0,2.55237e-09
469.9379,44.63419,44.96888,44.50585,0.00631994,0.0,1.1815e-20,0.0,0.0,1.1815e-20,-0.00259705,0.0,8.71823e-07,0.0,0.0,8.71823e-07,0.00416265,0.0,1.49755e-09,0.0,0.0,1.49755e-09
472.803,44.62178,44.96136,44.50105,0.00146609,0.0,3.90271e-21,0.0,0.0,3.90271e-21,0.00316255,0.0,6.07208e-07,0.0,0.0,6.07208e-07,0.00109435,0.0,8.71939e-10,0.0,0.0,8.71939e-10
475.667,44.61489,44.9576,44.49463,-0.00232479,0.0,1.27171e-21,0.0,0.0,1.27171e-21,0.00418888,0.0,4.20675e-07,0.0,0.0,4.20675e-07,0.000219917,0.0,5.03802e-10,0.0,0.0,5.03802e-10
478.532,44.61351,44.94717,44.49043,0.00305265,0.0,4.08781e-22,0.0,0.0,4.08781e-22,0.00418887,0.0,2.89905e-07,0.0,0.0,2.89905e-07,0.00243998,0.0,2.8887e-10,0.0,0.0,2.8887e-10
481.397,44.59394,44.94546,44.47706,0.00377521,0.0,1.29623e-22,0.0,0.0,1.29623e-22,0.00433023,0.0,1.98731e-07,0.0,0.0,1.98731e-07,0.00167032,0.0,1.64367e-10,0.0,0.0,1.64367e-10
484.262,44.5811,44.94506,44.46906,0.00613673,0.0,4.05467e-23,0.0,0.0,4.05467e-23,0.000596918,0.0,1.3551e-07,0.0,0.0,1.3551e-07,0.00182217,0.0,9.28095e-11,0.0,0.0,9.28095e-11
487.126,44.56627,44.93503,44.44338,0.00293743,0.0,1.25117e-23,0.0,0.0,1.25117e-23,0.00963445,0.0,9.19139e-08,0.0,0.0,9.19139e-08,0.0019426,0.0,5.20045e-11,0.0,0.0,5.20045e-11
489.991,44.57007,44.93208,44.44307,0.00377,0.0,3.80855e-24,0.0,0.0,3.80855e-24,3.14161e-05,0.0,6.20139e-08,0.0,0.0,6.20139e-08,0.00194258,0.0,2.89172e-11,0.0,0.0,2.89172e-11
492.856,44.55007,44.92751,44.43389,0.00428316,0.0,1.14364e-24,0.0,0.0,1.14364e-24,0.00628329,0.0,4.16195e-08,0.0,0.0,4.16195e-08,0.000219922,0.0,1.59567e-11,0.0,0.0,1.59567e-11
495.721,44.5445,44.92534,44.41907,-0.000267037,0.0,3.3877e-25,0.0,0.0,3.3877e-25,0.00335107,0.0,2.77846e-08,0.0,0.0,2.77846e-08,0.00394278,0.0,8.73767e-12,0.0,0.0,8.73767e-12
498.585,44.53659,44.91998,44.40595,0.000853488,0.0,9.89932e-26,0.0,0.0,9.89932e-26,0.00418887,0.0,1.84506e-08,0.0,0.0,1.84506e-08,-0.0,0.0,4.74808e-12,0.0,0.0,4.74808e-12
500.495,44.53659,44.91998,44.39879,-0.0,0.0,4.32633e-26,0.0,0.0,4.32633e-26,0.00491146,0.0,1.40024e-08,0.0,0.0,1.40024e-08,-0.0,0.0,3.14834e-12,0.0,0.0,3.14834e-12