File: data/Dy_parse_TGA.csv
temperature,rate_3,rate_10,rate_5
31.63192,99.99894,99.96317,100.076
32.58683,99.99902,99.9709,100.045
33.54175,100.001,99.9765,100.038
34.49666,100.0006,99.98113,100.032
35.45158,99.99498,99.97782,100.031
36.40649,99.99931,99.99157,100.045
37.36141,99.99758,99.99625,100.0493
38.31632,100.003,99.99793,100.046
39.27124,99.99177,100.001,100.048
40.22615,99.98793,99.99171,100.038
41.18107,99.98837,99.99222,100.043
42.13598,99.99517,99.9945,100.038
43.0909,99.99208,99.98998,100.046
44.04581,99.99,99.98411,100.037
45.00073,99.99101,99.9861,100.037
45.95564,99.99343,99.98957,100.052
46.91056,99.99298,99.99584,100.043
47.86547,99.99827,100.003,100.046
48.82039,100.0,99.99414,100.05
49.7753,99.99862,99.99226,100.058
50.73022,100.001,99.99707,100.049
51.68513,100,99.99875,100.044
52.64005,99.99656,99.9918,100.046
53.59496,99.99347,99.99124,100.052
54.54988,99.99778,99.98497,100.038
55.50479,100.006,99.97988,100.042
56.45971,100.009,99.98224,100.043
57.41462,100.007,99.98492,100.04
58.36954,100.005,99.98784,100.044
59.32445,100.012,99.98986,100.042
60.27937,100.012,99.98661,100.042
61.23428,100.012,99.98459,100.038
62.1892,100.015,99.98871,100.042
63.14411,100.017,99.9925,100.046
64.09903,100.024,99.99134,100.041
65.05394,100.019,99.99081,100.049
66.00886,100.015,99.98916,100.056
66.96377,100.014,99.99424,100.056
67.91869,100.017,99.9921,100.0596
68.8736,100.018,99.9854,100.064
69.82852,100.022,99.98154,100.065
70.78343,100.028,99.97972,100.058
71.73835,100.034,99.9799,100.057
72.69326,100.037,99.98789,100.063
73.64818,100.034,99.98695,100.06
74.60309,100.032,99.98603,100.055
75.55801,100.026,99.98196,100.054
76.51292,100.027,99.98412,100.054
77.46784,100.027,99.98579,100.058
78.42275,100.027,99.98885,100.06
79.37767,100.028,99.9929,100.058
80.33258,100.026,99.99966,100.06
81.2875,100.024,99.99831,100.0553
82.24241,100.023,99.99249,100.053
83.19733,100.012,99.98791,100.06
84.15224,100.008,99.98913,100.053
85.10716,100.0185,99.98872,100.052
86.06207,100.006,99.98576,100.052
87.01699,100.007,99.98201,100.046
87.9719,100.009,99.97936,100.048
88.92682,100.01,99.97739,100.049
89.88173,100.016,99.97852,100.044
90.83665,100.02,99.97896,100.044
91.79156,100.02,99.97932,100.046
92.74648,100.016,99.98344,100.048
93.70139,100.014,99.98751,100.05
94.65631,100.014,99.98955,100.05
95.61122,100.019,99.98827,100.05
96.56614,100.021,99.98704,100.05
97.52105,100.0209,99.97785,100.046
98.47597,100.015,99.97701,100.043
99.43088,100.019,99.97701,100.041
100.3858,100.021,99.9766,100.0408
101.341,100.021,99.97533,100.04
102.296,100.022,99.97367,100.036
103.251,100.017,99.972,100.033
104.205,100.017,99.9696,100.029
105.16,100.028,99.96572,100.025
106.115,100.033,99.96197,100.028
107.0702,100.024,99.96197,100.032
108.025,100.021,99.9628,100.033
108.98,100.021,99.96071,100.035
109.935,100.021,99.95905,100.038
110.89,100.02,99.95817,100.04
111.845,100.018,99.95654,100.039
112.8,100.018,99.95611,100.038
113.755,100.016,99.95611,100.037
114.71,100.018,99.95528,100.036
115.664,100.018,99.95489,100.035
116.619,100.021,99.95828,100.034
117.574,100.018,99.95904,100.034
118.529,100.013,99.95743,100.034
119.4841,100.01,99.95423,100.034
120.439,100.007,99.95235,100.033
121.394,100.0155,99.95194,100.033
122.349,100.014,99.95194,100.032
123.304,100.013,99.95235,100.027
124.259,100,99.95319,100.026
125.214,99.99759,99.95361,100.024
126.1685,99.99029,99.95403,100.023
127.123,99.99434,99.95403,100.023
128.078,99.99517,99.95445,100.024
129.033,99.99207,99.95021,100.024
129.988,99.9872,99.94693,100.024
130.943,99.98414,99.94441,100.018
131.898,99.98107,99.94187,100.008
132.853,99.97897,99.94149,100.006
133.808,99.96977,99.94149,100.01
134.763,99.96138,99.94149,100.0136
135.718,99.95828,99.94065,100.013
136.673,99.9507,99.93487,100.012
137.627,99.94548,99.92764,100.0112
138.5824,99.94863,99.92477,100.0104
139.537,99.94104,99.92477,100.008
140.492,99.93897,99.92852,99.9968
141.447,99.93483,99.93187,99.9964
142.402,99.93242,99.93024,99.9964
143.357,99.92583,99.92726,99.9956
144.312,99.92242,99.92811,99.99288
145.2668,99.91932,99.92769,99.98851
146.222,99.92484,99.92728,99.9864
147.177,99.92484,99.92142,99.9848
148.132,99.91587,99.9185,99.9824
149.086,99.9048,99.91684,99.97601
150.041,99.90277,99.91203,99.97481
150.996,99.89707,99.90807,99.96563
151.951,99.89381,99.90554,99.95841
152.906,99.89528,99.90303,99.95441
153.861,99.89277,99.89764,99.94602
154.816,99.88041,99.89425,99.93762
155.771,99.87971,99.89092,99.93322
156.726,99.86537,99.88801,99.92842
157.6807,99.86415,99.88548,99.92042
158.636,99.85762,99.8813,99.91802
159.591,99.8454,99.87672,99.91323
160.545,99.8314,99.87211,99.90683
161.5,99.8235,99.86874,99.90363
162.455,99.8138,99.86505,99.8954
163.41,99.80556,99.86123,99.88963
164.3651,99.79899,99.85623,99.88517
165.32,99.78141,99.85162,99.88044
166.275,99.76863,99.84684,99.88024
167.23,99.76111,99.84192,99.87284
168.185,99.74148,99.83576,99.86912
169.14,99.7321,99.82992,99.85862
170.095,99.72669,99.8228,99.83797
171.05,99.71313,99.82153,99.8253
172.004,99.69831,99.82066,99.81536
172.959,99.68022,99.81817,99.81006
173.914,99.65814,99.80775,99.79911
174.869,99.64749,99.80106,99.78184
175.824,99.6228,99.79377,99.77571
176.779,99.60019,99.77841,99.76603
177.734,99.57351,99.76426,99.748
178.689,99.54008,99.75882,99.73405
179.644,99.50292,99.75257,99.71245
180.599,99.46696,99.74796,99.69729
181.554,99.43896,99.74785,99.67651
182.508,99.39767,99.73877,99.65889
183.4634,99.35734,99.72923,99.6297
184.418,99.31524,99.72296,99.59922
185.373,99.26532,99.71365,99.57051
186.328,99.22165,99.70486,99.54109
187.283,99.1715,99.69651,99.51103
188.238,99.1176,99.68268,99.47681
189.193,99.05285,99.6668,99.45144
190.148,98.99116,99.65636,99.41052
191.103,98.92224,99.6392,99.36746
192.058,98.86336,99.62543,99.324
193.013,98.79092,99.61799,99.28342
193.967,98.71736,99.60457,99.23866
194.922,98.64732,99.5912,99.184
195.8773,98.57631,99.57501,99.13828
196.832,98.48776,99.55629,99.08306
197.787,98.40034,99.53481,99.03024
198.742,98.29847,99.51016,98.97061
199.697,98.20437,99.4926,98.9156
200.652,98.08709,99.46486,98.84653
201.607,97.98224,99.43587,98.7773
202.5617,97.85366,99.40589,98.69852
203.517,97.73303,99.37113,98.61413
204.472,97.59609,99.32964,98.52096
205.426,97.44305,99.28943,98.43417
206.381,97.29857,99.25099,98.34164
207.336,97.14105,99.20438,98.24559
208.291,96.99694,99.15526,98.14864
209.246,96.82824,99.10292,98.02772
210.201,96.64434,99.04412,97.91364
211.156,96.44455,98.9772,97.78671
212.111,96.25683,98.91548,97.65353
213.066,96.06238,98.85125,97.51885
214.021,95.85526,98.79322,97.38011
214.9756,95.65537,98.738,97.23304
215.931,95.43021,98.65711,97.07531
216.885,95.19536,98.57245,96.91995
217.84,94.96756,98.49105,96.76612
218.795,94.72143,98.40384,96.59344
219.75,94.47364,98.30921,96.43443
220.705,94.21285,98.21062,96.25151
221.66,93.93031,98.06865,96.0614
222.615,93.6486,97.96896,95.87053
223.57,93.366,97.87083,95.65114
224.525,93.08204,97.74547,95.44175
225.48,92.77594,97.60825,95.23067
226.435,92.44933,97.47747,94.98345
227.389,92.17373,97.33843,94.77458
228.344,91.87962,97.19548,94.5176
229.299,91.56279,97.06054,94.30417
230.254,91.23104,96.90467,94.03721
231.209,90.9467,96.74122,93.78792
232.164,90.60993,96.57292,93.54285
233.119,90.26717,96.41941,93.27658
234.0739,89.92591,96.27493,93.03237
235.029,89.59024,96.08171,92.75696
235.984,89.21786,95.90139,92.49071
236.939,88.86256,95.70546,92.2102
237.894,88.50068,95.51351,91.93111
238.848,88.12333,95.31517,91.64062
239.803,87.73046,95.10759,91.35722
240.7583,87.35135,94.89466,91.04809
241.713,86.96334,94.68735,90.71112
242.668,86.5711,94.46575,90.35963
243.623,86.17611,94.2417,89.98974
244.578,85.7643,94.00994,89.59991
245.533,85.34384,93.78533,89.18958
246.488,84.9307,93.55554,88.77253
247.443,84.47973,93.31747,88.32955
248.398,84.05533,93.06174,87.88673
249.353,83.57012,92.82278,87.41314
250.307,83.13258,92.57456,86.93277
251.262,82.65211,92.3306,86.47163
252.217,82.16853,92.05781,85.96906
253.1722,81.66274,91.80715,85.46916
254.127,81.15042,91.56745,84.96314
255.082,80.62377,91.29736,84.4609
256.037,80.09568,91.02211,83.91765
256.992,79.5483,90.72832,83.38629
257.947,79.00217,90.44063,82.84894
258.902,78.43569,90.13495,82.303
259.8566,77.85766,89.83558,81.76299
260.812,77.26695,89.52465,81.22216
261.766,76.71213,89.20459,80.66301
262.721,76.10454,88.86766,80.10187
263.676,75.52277,88.54617,79.54016
264.631,74.93186,88.20359,78.97789
265.586,74.34228,87.86104,78.42227
266.541,73.7818,87.49985,77.85548
267.496,73.20986,87.12673,77.29933
268.451,72.65753,86.76936,76.75086
269.406,72.1465,86.38605,76.18371
270.361,71.7069,86.01038,75.66288
271.316,71.37829,85.61311,75.11787
272.2705,71.15643,85.21274,74.57668
273.225,70.94555,84.79461,74.03804
274.18,70.75891,84.37368,73.53827
275.135,70.57408,83.94623,73.01438
276.09,70.38744,83.50635,72.52805
277.045,70.18793,83.06838,72.0419
278,69.98979,82.62812,71.58872
278.9549,69.77286,82.18108,71.18583
279.91,69.56409,81.72671,70.84552
280.865,69.35345,81.27445,70.54273
281.82,69.13675,80.81532,70.27428
282.775,68.91301,80.35089,70.04272
283.729,68.6741,79.88261,69.79405
284.684,68.44954,79.4199,69.59908
285.639,68.22167,78.95883,69.35035
286.594,67.97864,78.48431,69.1432
287.549,67.72925,78.01331,68.90157
288.504,67.47906,77.5572,68.70399
289.459,67.2291,77.11504,68.4466
290.414,66.98594,76.6415,68.23266
291.3688,66.72128,76.19303,67.97686
292.324,66.45933,75.74424,67.74423
293.279,66.18386,75.29764,67.5099
294.234,65.8823,74.84831,67.26146
295.188,65.62534,74.42426,67.02808
296.143,65.34194,73.9954,66.76706
297.098,65.03681,73.581,66.52931
298.0532,64.73659,73.16873,66.26983
299.008,64.4524,72.78344,66.03388
299.963,64.13244,72.41352,65.75831
300.918,63.83053,72.06844,65.5119
301.873,63.51023,71.741,65.24374
302.828,63.1456,71.44361,65.03439
303.783,62.8393,71.1627,64.74074
304.738,62.51079,70.88496,64.46894
305.693,62.17678,70.63566,64.22008
306.647,61.81956,70.39522,63.94571
307.602,61.47062,70.17159,63.66156
308.557,61.12729,69.94719,63.4037
309.512,60.75658,69.725,63.10061
310.4671,60.38501,69.50386,62.82107
311.422,60.0049,69.28178,62.54412
312.377,59.62109,69.07069,62.24894
313.332,59.26891,68.84196,61.94491
314.287,58.84196,68.60016,61.6576
315.242,58.44321,68.36367,61.34036
316.197,58.04297,68.12977,61.03166
317.1515,57.6297,67.88921,60.71751
318.106,57.22518,67.64761,60.419
319.061,56.79409,67.38848,60.07853
320.016,56.35805,67.14942,59.76117
320.971,55.92537,66.89054,59.4376
321.926,55.48044,66.63429,59.10755
322.881,55.02249,66.36884,58.7753
323.836,54.55603,66.10654,58.4355
324.791,54.0927,65.84201,58.10093
325.746,53.61837,65.561,57.75045
326.701,53.13858,65.2836,57.40036
327.656,52.66358,65.00028,57.03874
328.61,52.19111,64.71852,56.6868
329.5654,51.70864,64.43078,56.32021
330.52,51.25099,64.13442,55.94908
331.475,50.79593,63.82905,55.57323
332.43,50.37344,63.53758,55.21202
333.385,49.97984,63.25643,54.8133
334.34,49.67471,62.93536,54.41872
335.295,49.48016,62.62666,54.02068
336.2498,49.45326,62.31992,53.62887
337.205,49.42487,61.99088,53.2361
338.16,49.39721,61.67884,52.82981
339.115,49.36126,61.34921,52.43689
340.069,49.33348,61.01475,52.0274
341.024,49.29872,60.68638,51.64382
341.979,49.26905,60.35658,51.24229
342.934,49.2325,60.01297,50.86653
343.889,49.19848,59.66826,50.48839
344.844,49.14855,59.3275,50.13071
345.799,49.10356,58.97022,49.80629
346.754,49.05141,58.61133,49.55302
347.709,48.99718,58.2558,49.32314
348.6637,48.94333,57.87176,49.25682
349.619,48.89267,57.49693,49.23322
350.574,48.83104,57.11844,49.20642
351.528,48.77163,56.75363,49.1713
352.483,48.72406,56.39249,49.13993
353.438,48.65721,55.99899,49.10247
354.393,48.58546,55.60835,49.06566
355.3481,48.52503,55.2283,49.02886
356.303,48.45879,54.83956,48.99244
357.258,48.38858,54.46106,48.95381
358.213,48.31722,54.0846,48.91253
359.168,48.2483,53.70054,48.86655
360.123,48.18077,53.32004,48.82089
361.078,48.10098,52.95805,48.78096
362.033,48.02659,52.58672,48.7358
362.987,47.94454,52.21721,48.69181
363.942,47.87967,51.86558,48.64301
364.897,47.79512,51.52002,48.59306
365.852,47.70849,51.18331,48.54622
366.807,47.62491,50.85116,48.49624
367.762,47.53977,50.5495,48.44576
368.717,47.44906,50.27939,48.38889
369.672,47.3629,50.03442,48.33525
370.627,47.26278,49.79719,48.27572
371.582,47.17015,49.62371,48.21634
372.537,47.05944,49.50667,48.15623
373.491,46.9522,49.46943,48.0841
374.4464,46.84658,49.44319,48.01638
375.401,46.76233,49.40958,47.95108
376.356,46.64103,49.36476,47.88538
377.311,46.52485,49.31789,47.8155
378.266,46.42206,49.27104,47.73563
379.221,46.30182,49.22116,47.65708
380.176,46.18682,49.16846,47.58295
381.131,46.08341,49.11203,47.51386
382.086,45.95472,49.0417,47.43682
383.041,45.83161,48.96714,47.34995
383.996,45.70809,48.91085,47.26259
384.95,45.57125,48.86128,47.18528
385.905,45.44256,48.80053,47.09449
386.8603,45.31348,48.72661,47.00396
387.815,45.18154,48.64809,46.91943
388.77,45.05182,48.57361,46.82038
389.725,44.94382,48.50418,46.73625
390.68,44.90672,48.42496,46.63641
391.635,44.89139,48.35006,46.53089
392.59,44.89005,48.27253,46.42969
393.5447,44.88796,48.19825,46.32477
394.5,44.88382,48.11736,46.23466
395.455,44.87969,48.03105,46.12782
396.409,44.87135,47.94569,46.01419
397.364,44.86314,47.86039,45.88118
398.319,44.86934,47.76885,45.77058
399.274,44.87107,47.67915,45.65417
400.229,44.86727,47.58352,45.53313
401.184,44.86658,47.49645,45.42293
402.139,44.85971,47.39961,45.30366
403.094,44.85315,47.2982,45.17367
404.049,44.85279,47.19613,45.0592
405.004,44.85279,47.09154,44.9489
405.9586,44.84373,46.99,44.83554
406.914,44.84796,46.89518,44.75791
407.868,44.84057,46.79533,44.74065
408.823,44.8421,46.66083,44.72616
409.778,44.84279,46.53218,44.71299
410.733,44.84141,46.42935,44.70953
411.688,44.83592,46.31598,44.70472
412.643,44.82521,46.18898,44.6975
413.598,44.82314,46.07183,44.69383
414.553,44.81895,45.96673,44.69139
415.508,44.81555,45.82808,44.6866
416.463,44.81452,45.68851,44.6826
417.418,44.81176,45.58876,44.679
418.372,44.80832,45.48561,44.66784
419.327,44.809,45.3596,44.6714
420.282,44.80004,45.24093,44.6718
421.237,44.7959,45.13042,44.66975
422.192,44.7959,45.07378,44.65821
423.147,44.78754,45.05348,44.6578
424.102,44.78279,45.04665,44.6582
425.0569,44.77078,45.03789,44.6586
426.012,44.77004,45.0297,44.6518
426.967,44.77004,45.02142,44.64714
427.922,44.76866,45.02113,44.64701
428.877,44.76521,45.01904,44.64661
429.831,44.75935,45.01532,44.63702
430.786,44.75312,45.01756,44.62861
431.7413,44.75177,45.02297,44.62901
432.696,44.75108,45.02656,44.6274
433.651,44.74901,45.0253,44.62549
434.606,44.74694,45.01946,44.62062
435.561,44.7387,45.01407,44.61274
436.516,44.72754,45.0111,44.60142
437.471,44.73416,45.01026,44.60102
438.426,44.73384,45.0094,44.60102
439.381,44.73315,45.00734,44.60062
440.336,44.71384,45.0003,44.59833
441.29,44.71281,44.99607,44.60422
442.245,44.71039,44.99521,44.6002
443.2,44.71262,44.99521,44.59515
444.1552,44.70936,44.99981,44.58751
445.11,44.71522,45.00232,44.58305
446.065,44.71832,45.00316,44.57583
447.02,44.71074,45.00278,44.57097
447.975,44.71212,44.99849,44.569
448.93,44.70703,44.99772,44.56703
449.885,44.69764,44.99814,44.56502
450.8396,44.69074,44.99313,44.56023
451.795,44.69074,44.9923,44.55424
452.749,44.68384,44.98812,44.55183
453.704,44.68384,44.98694,44.55223
454.659,44.68315,44.98344,44.55543
455.614,44.68143,44.981,44.55229
456.569,44.67935,44.98017,44.54784
457.524,44.67251,44.98263,44.54424
458.479,44.66491,44.98518,44.53784
459.434,44.66488,44.98688,44.53505
460.389,44.66488,44.98396,44.53024
461.344,44.66251,44.98184,44.52776
462.299,44.65109,44.97853,44.52425
463.2535,44.64797,44.97725,44.52104
464.208,44.6549,44.9785,44.5206
465.163,44.65626,44.97593,44.51784
466.118,44.65348,44.9693,44.51503
467.073,44.65279,44.968,44.50879
468.028,44.6473,44.97027,44.50904
468.983,44.64075,44.97098,44.50724
469.9379,44.63419,44.96888,44.50585
470.893,44.62868,44.96303,44.5122
471.848,44.62389,44.96178,44.50709
472.803,44.62178,44.96136,44.50105
473.758,44.62109,44.95969,44.50105
474.712,44.61489,44.95802,44.50105
475.667,44.61489,44.9576,44.49463
476.622,44.61933,44.9576,44.49305
477.577,44.6142,44.95223,44.49305
478.532,44.61351,44.94717,44.49043
479.487,44.60837,44.94757,44.48505
480.442,44.59796,44.94852,44.48146
481.397,44.59394,44.94546,44.47706
482.3518,44.59075,44.94533,44.47319
483.307,44.58178,44.9452,44.46906
484.262,44.5811,44.94506,44.46906
485.217,44.57006,44.94172,44.46792
486.171,44.56903,44.93832,44.46067
487.126,44.56627,44.93503,44.44338
488.081,44.56342,44.93461,44.44227
489.0362,44.57041,44.93372,44.44313
489.991,44.57007,44.93208,44.44307
490.946,44.56321,44.93001,44.44307
491.901,44.55893,44.92834,44.44067
492.856,44.55007,44.92751,44.43389
493.811,44.55075,44.92792,44.42867
494.766,44.54404,44.92751,44.42347
495.721,44.5445,44.92534,44.41907
496.676,44.54455,44.91998,44.41707
497.63,44.53822,44.91998,44.41148
498.585,44.53659,44.91998,44.40595
499.54,44.53659,44.91998,44.40348
500.495,44.53659,44.91998,44.39879