File: data/Ho_deconvoluated_TGA.csv
temperature,rate_3,rate_5,rate_10,rate_3_diff,rate_3_diff_reaction_0,rate_3_diff_reaction_1,rate_3_diff_reaction_2,rate_3_diff_reaction_3,rate_3_diff_cumulative,rate_5_diff,rate_5_diff_reaction_0,rate_5_diff_reaction_1,rate_5_diff_reaction_2,rate_5_diff_reaction_3,rate_5_diff_cumulative,rate_10_diff,rate_10_diff_reaction_0,rate_10_diff_reaction_1,rate_10_diff_reaction_2,rate_10_diff_reaction_3,rate_10_diff_cumulative
31.02392,99.50304,100.406,99.36246,-0.004995235,7.6e-25,0.000630288,0.000320683,3.25e-05,0.000983454,-0.0144307,4.53e-05,4.68e-67,2.74e-05,9.47e-80,7.27e-05,-0.0772534,1.72971e-56,0.00204283,0.000900559,2.91607e-05,0.00297255
32.93375,99.5153,100.414,99.41719,-0.02579306,2.07e-24,0.000651196,0.000329779,3.33e-05,0.001014318,-0.001356217,5.14e-05,1.39e-81,2.83e-05,1.57e-78,7.96e-05,0.00247648,1.56899e-55,0.0020952,0.000921138,2.9868e-05,0.0030462
34.84358,99.52038,100.423,99.44233,0.0174202,5.59e-24,0.000672911,0.000339173,3.42e-05,0.001046314,0.000214689,5.82e-05,1.46e-97,2.91e-05,2.54e-77,8.73e-05,-0.0187243,1.39578e-54,0.00214913,0.000942264,3.0595e-05,0.00312199
36.75341,99.53396,100.4293,99.47569,-0.0135457,1.5e-23,0.000695467,0.000348876,3.51e-05,0.001079488,-0.002487076,6.59e-05,5.46e-115,3e-05,4.02e-76,9.59e-05,-0.00424117,1.21778e-53,0.00220469,0.000963955,3.13424e-05,0.00319999
38.66324,99.53658,100.434,99.48997,0.001963403,3.96e-23,0.000718902,0.000358902,3.61e-05,0.001113891,-0.006974437,7.45e-05,7.21e-134,3.09e-05,6.24e-75,0.000105499,-0.00601091,1.04201e-52,0.00226194,0.000986228,3.21108e-05,0.00328027
40.57307,99.54767,100.435,99.50349,-0.007215358,1.04e-22,0.000743256,0.000369261,3.71e-05,0.001149574,0.002649425,8.42e-05,3.37e-154,3.19e-05,9.46e-74,0.000116153,-0.00657639,8.74426e-52,0.00232092,0.0010091,3.29009e-05,0.00336292
42.4829,99.55795,100.442,99.49837,0.000534065,2.7e-22,0.000768569,0.000379967,3.81e-05,0.001186594,-0.00119376,9.51e-05,5.59e-176,3.29e-05,1.4e-72,0.000128012,-0.00094775,7.19661e-51,0.0023817,0.00103259,3.37134e-05,0.00344801
44.39273,99.57063,100.438,99.50221,0.000508035,6.97e-22,0.000794885,0.000391032,3.91e-05,0.001225008,-0.004848637,0.000107286,3.28e-199,3.39e-05,2.04e-71,0.000141208,-0.000858713,5.80876e-50,0.00244435,0.00105672,3.4549e-05,0.00353562
46.30256,99.55284,100.451,99.51622,-0.003152199,1.78e-21,0.000822249,0.000402471,4.02e-05,0.001264876,-0.003749012,0.000120898,6.82e-224,3.5e-05,2.89e-70,0.000155882,-0.0143992,4.59824e-49,0.00250893,0.0010815,3.54085e-05,0.00362584
48.21239,99.5745,100.455,99.51815,-0.008440512,4.49e-21,0.000850709,0.000414298,4.13e-05,0.001306261,-0.006005815,0.000136108,5.02e-250,3.61e-05,4.02e-69,0.000172193,0.00352378,3.56985e-48,0.00257551,0.00110696,3.62926e-05,0.00371877
50.12222,99.57977,100.4568,99.53124,-0.002371965,1.12e-20,0.000880316,0.000426527,4.24e-05,0.001349231,0.007466622,0.000153087,1.31e-277,3.72e-05,5.46e-68,0.000190312,-0.0043459,2.71807e-47,0.00264416,0.00113313,3.72021e-05,0.00381449
52.03205,99.57733,100.455,99.52705,0.004476808,2.79e-20,0.000911123,0.000439176,4.36e-05,0.001393855,-0.003188751,0.00017202,1.21e-306,3.84e-05,7.26e-67,0.000210427,-0.00480681,2.02966e-46,0.00271496,0.00116001,3.81379e-05,0.00391311
53.94188,99.58942,100.461,99.54201,-0.0122786,6.85e-20,0.000943186,0.000452259,4.48e-05,0.001440207,-0.005330328,0.000193112,0.0,3.96e-05,9.45e-66,0.000232744,0.00402659,1.4864e-45,0.00278798,0.00118764,3.91008e-05,0.00401471
55.85171,99.6,100.473,99.53957,0.000670232,1.67e-19,0.000976562,0.000465794,4.6e-05,0.001488363,-0.00142939,0.000216586,0.0,4.09e-05,1.2e-64,0.000257487,-0.00815781,1.06758e-44,0.0028633,0.00121603,4.00918e-05,0.00411942
57.76154,99.58342,100.467,99.5538,0.006073743,4.02e-19,0.001011315,0.0004798,4.73e-05,0.001538406,0.002921723,0.000242682,0.0,4.22e-05,1.5e-63,0.0002849,-0.00138752,7.51998e-44,0.00294101,0.00124522,4.11117e-05,0.00422733
59.67137,99.59156,100.462,99.54499,-0.00949827,9.61e-19,0.001047509,0.000494294,4.86e-05,0.00159042,0.003654796,0.000271665,0.0,4.36e-05,1.83e-62,0.000315249,0.00416264,5.19498e-43,0.00302119,0.00127522,4.21615e-05,0.00433857
61.5812,99.61008,100.456,99.54879,-0.005010909,2.27e-18,0.001085213,0.000509296,5e-05,0.001644495,-0.001429478,0.000303822,0.0,4.5e-05,2.18e-61,0.000348821,-0.0056183,3.51968e-42,0.00310393,0.00130607,4.32422e-05,0.00445324
63.49103,99.61612,100.458,99.55225,-0.002110136,5.33e-18,0.001124499,0.000524827,5.14e-05,0.001700725,0.00139802,0.000339463,0.0,4.65e-05,2.54e-60,0.000385931,0.00147133,2.3387e-41,0.00318934,0.00133778,4.43549e-05,0.00457148
65.40086,99.61509,100.459,99.551,0.003696669,1.24e-17,0.001165443,0.000540908,5.29e-05,0.001759209,-0.000853473,0.000378926,0.0,4.8e-05,2.89e-59,0.000426918,0.00169126,1.52404e-40,0.0032775,0.0013704,4.55005e-05,0.00469341
67.31069,99.61007,100.458,99.54659,0.000523601,2.85e-17,0.001208127,0.000557561,5.44e-05,0.001820053,-0.000638817,0.000422576,0.0,4.96e-05,3.23e-58,0.00047215,0.00543508,9.74023e-40,0.00336853,0.00140395,4.66804e-05,0.00481916
69.22052,99.60908,100.464,99.53552,0.001057686,6.48e-17,0.001252634,0.000574809,5.59e-05,0.001883366,-0.004052714,0.000470809,0.0,5.12e-05,3.53e-57,0.000522024,-0.00212589,6.10512e-39,0.00346253,0.00143845,4.78955e-05,0.00494887
71.13035,99.61098,100.467,99.54931,-0.0124096,1.46e-16,0.001299055,0.000592678,5.75e-05,0.001949264,-0.000848265,0.000524049,0.0,5.29e-05,3.77e-56,0.000576968,-0.00374375,3.75293e-38,0.0035596,0.00147395,4.91471e-05,0.0050827
73.04018,99.62933,100.464,99.54428,0.002649452,3.27e-16,0.001347484,0.000611191,5.92e-05,0.002017868,0.00213104,0.000582758,0.0,5.47e-05,3.94e-55,0.000637446,0.0037909,2.26255e-37,0.00365987,0.00151047,5.04365e-05,0.00522077
74.95001,99.63797,100.468,99.54166,0.002900936,7.25e-16,0.001398021,0.000630377,6.09e-05,0.002089308,0.000591708,0.000647431,0.0,5.65e-05,4.03e-54,0.000703956,-0.00238768,1.33776e-36,0.00376346,0.00154804,5.17649e-05,0.00536327
76.85984,99.62065,100.458,99.55223,0.000267037,1.59e-15,0.001450772,0.000650263,6.27e-05,0.00216372,0.004948066,0.000718599,0.0,5.84e-05,4.03e-53,0.000777033,-0.00617856,7.75726e-36,0.0038705,0.00158671,5.31337e-05,0.00551034
78.76967,99.63023,100.456,99.56352,-0.004513433,3.46e-15,0.001505848,0.000670878,6.45e-05,0.002241245,-0.002597103,0.000796836,0.0,6.04e-05,3.94e-52,0.000857251,-0.00253946,4.41154e-35,0.00398111,0.00162651,5.45443e-05,0.00566216
80.6795,99.63078,100.459,99.55894,0.000816852,7.44e-15,0.001563366,0.000692254,6.64e-05,0.002322036,0.00217298,0.000882753,0.0,6.25e-05,3.78e-51,0.000945229,0.00456585,2.4605e-34,0.00409544,0.00166747,5.59982e-05,0.00581891
82.58933,99.61818,100.458,99.54993,0.006361785,1.59e-14,0.001623453,0.000714421,6.84e-05,0.002406251,-0.001686009,0.000977009,0.0,6.46e-05,3.54e-50,0.001041625,-0.00150282,1.34589e-33,0.00421363,0.00170964,5.74968e-05,0.00598077
84.49916,99.62903,100.4557,99.55615,-0.00108373,3.35e-14,0.001686239,0.000737414,7.04e-05,0.002494059,0.001256636,0.001080304,0.0,6.68e-05,3.24e-49,0.001147146,-0.000790668,7.22014e-33,0.00433584,0.00175306,5.90417e-05,0.00614794
86.40899,99.62217,100.459,99.55556,-0.00475435,7.02e-14,0.001751865,0.000761269,7.25e-05,0.002585637,-0.002864128,0.00119339,0.0,6.92e-05,2.91e-48,0.001262544,0.0021939,3.79869e-32,0.00446221,0.00179776,6.06346e-05,0.00632061
88.31882,99.62065,100.453,99.55385,0.004686264,1.46e-13,0.001820479,0.000786021,7.47e-05,0.002681173,0.003591881,0.001317064,0.0,7.16e-05,2.55e-47,0.001388625,0.000418881,1.96008e-31,0.00459291,0.0018438,6.22771e-05,0.00649899
90.22865,99.61763,100.463,99.55162,-0.004675859,2.99e-13,0.001892236,0.00081171,7.69e-05,0.002780865,-0.007335717,0.001452179,0.0,7.41e-05,2.19e-46,0.001526242,0.00116239,9.91891e-31,0.00472812,0.00189122,6.3971e-05,0.00668332
92.13848,99.62972,100.473,99.55275,-0.003173057,6.08e-13,0.001967304,0.000838377,7.92e-05,0.002884923,-0.004691522,0.001599639,0.0,7.67e-05,1.84e-45,0.001676305,-0.0057859,4.92273e-30,0.00486802,0.00194007,6.57182e-05,0.0068738
94.04831,99.63583,100.495,99.57653,-0.003220182,1.23e-12,0.002045858,0.000866063,8.16e-05,0.002993568,-0.0172424,0.001760405,0.0,7.94e-05,1.51e-44,0.001839779,-0.0066602,2.39607e-29,0.00501278,0.00199039,6.75206e-05,0.0070707
95.95814,99.6408,100.5313,99.56734,-0.003639085,2.45e-12,0.002128084,0.000894815,8.41e-05,0.003107036,-0.0223161,0.001935492,0.0,8.22e-05,1.21e-43,0.002017685,0.0130221,1.14379e-28,0.00516262,0.00204224,6.93801e-05,0.00727424
97.86797,99.64334,100.563,99.54766,-0.005801652,4.84e-12,0.002214182,0.000924679,8.67e-05,0.003225574,-0.00596384,0.002125979,0.0,8.51e-05,9.54e-43,0.002211106,0.000329844,5.35479e-28,0.00531773,0.00209568,7.12988e-05,0.0074847
99.7778,99.66045,100.373,99.55105,-0.002377161,9.49e-12,0.002304361,0.000955704,8.94e-05,0.003349446,-0.00596384,0.002333001,0.0,8.82e-05,7.34e-42,0.002421184,-0.00201589,2.45861e-27,0.00547833,0.00215074,7.32789e-05,0.00770235
101.688,99.66902,100.321,99.55552,-0.000256487,1.84e-11,0.002398844,0.000987943,9.21e-05,0.003478932,0.000272273,0.002557758,0.0,9.14e-05,5.52e-41,0.002649123,-0.0018431,1.10711e-26,0.00564464,0.00220751,7.53226e-05,0.00792747
103.597,99.65945,100.3306,99.55594,0.000298431,3.54e-11,0.002497868,0.001021449,9.5e-05,0.003614325,-0.01365047,0.002801513,0.0,9.47e-05,4.07e-40,0.002896192,0.00273324,4.88924e-26,0.00581691,0.00226603,7.74323e-05,0.00816037
105.507,99.66448,100.358,99.55331,0.003393042,6.74e-11,0.002601686,0.00105628,9.8e-05,0.003755939,-0.0129855,0.003065592,0.0,9.81e-05,2.93e-39,0.003163723,-0.00184834,2.1176e-25,0.00599537,0.00232636,7.96103e-05,0.00840134
107.417,99.64937,100.379,99.55278,0.003691406,1.27e-10,0.002710566,0.001092496,0.000101046,0.003904108,-0.008173511,0.003351386,0.0,0.00010173,2.07e-38,0.003453117,0.00385376,8.99492e-25,0.00618028,0.00238858,8.18591e-05,0.00865072
109.327,99.64786,100.383,99.54652,0.000528848,2.38e-10,0.002824791,0.001130161,0.000104231,0.004059183,0.001397999,0.003660356,0.0,0.000105481,1.42e-37,0.003765837,0.00154987,3.74717e-24,0.00637192,0.00245275,8.41816e-05,0.00890885
111.237,99.64484,100.3804,99.54653,0.002110136,4.4e-10,0.002944666,0.001169341,0.000107532,0.004221539,-0.004539769,0.003994023,0.0,0.000109392,9.6e-37,0.004103415,-0.00214156,1.53095e-23,0.00657057,0.00251894,8.65803e-05,0.00917609
113.147,99.64081,100.401,99.5533,0.001581287,8.08e-10,0.003070513,0.001210106,0.000110954,0.004391574,-0.009320223,0.004353981,0.0,0.00011347,6.34e-36,0.00446745,-0.00312069,6.13435e-23,0.00677652,0.00258722,8.90581e-05,0.0094528
115.056,99.64181,100.418,99.55671,-0.002371942,1.47e-09,0.003202677,0.00125253,0.000114502,0.004569711,-0.013284,0.004741884,0.0,0.000117723,4.09e-35,0.004859607,-0.0010315,2.41062e-22,0.00699009,0.00265768,9.1618e-05,0.00973939
116.966,99.65,100.4305,99.55556,-0.002408554,2.64e-09,0.003341523,0.001296691,0.000118183,0.0047564,0.0,0.005159456,0.0,0.000122161,2.58e-34,0.005281617,0.00325685,9.2905e-22,0.00721161,0.00273038,9.42632e-05,0.0100363
118.8761,99.6534,100.376,99.54758,-0.001288037,4.71e-09,0.003487443,0.00134267,0.000122,0.004952119,0.0,0.005608483,0.0,0.000126793,1.6e-33,0.005735276,0.0020787,3.51158e-21,0.00744141,0.00280542,9.69968e-05,0.0103438
120.786,99.65139,100.3599,99.54709,-0.000523612,8.32e-09,0.003640854,0.001390554,0.000125961,0.005157377,0.002806503,0.006090816,0.0,0.000131627,9.66e-33,0.006222443,-0.00508428,1.30172e-20,0.00767985,0.00288287,9.98223e-05,0.0106625
122.696,99.65189,100.3599,99.56124,0.000790649,1.46e-08,0.003802199,0.001440433,0.00013007,0.005372717,0.000214681,0.006608366,0.0,0.000136675,5.71e-32,0.006745041,-0.00412078,4.7324e-20,0.00792732,0.00296284,0.000102743,0.0109929
124.606,99.6403,100.358,99.56648,0.005801508,2.52e-08,0.003971955,0.001492403,0.000134336,0.005598719,-0.000853506,0.007163104,0.0,0.000141946,3.31e-31,0.00730505,-0.000575954,1.68733e-19,0.0081842,0.00304541,0.000105763,0.0113354
126.515,99.63678,100.362,99.56521,0.002377167,4.33e-08,0.004150628,0.001546564,0.000138764,0.005836,-0.000424113,0.007757057,0.0,0.000147453,1.87e-30,0.00790451,0.00249239,5.90021e-19,0.00845093,0.00313068,0.000108886,0.0116905
128.425,99.63526,100.363,99.5554,1.42e-14,7.37e-08,0.004338761,0.001603024,0.000143361,0.006085221,-0.003209736,0.008392305,0.0,0.000153207,1.04e-29,0.008545512,0.00471769,2.02343e-18,0.00872792,0.00321875,0.000112115,0.0120588
130.335,99.63526,100.3709,99.54865,0.004743927,1.24e-07,0.004536935,0.001661895,0.000148136,0.00634709,-0.002968851,0.009070977,0.0,0.000159221,5.62e-29,0.009230198,0.0025709,6.80548e-18,0.00901564,0.00330974,0.000115456,0.0124408
132.245,99.62269,100.376,99.54709,0.009084635,2.07e-07,0.004745769,0.001723295,0.000153095,0.006622366,-0.000869174,0.009795248,0.0,0.000165508,2.98e-28,0.009960756,-0.0,2.24482e-17,0.00931457,0.00340374,0.000118912,0.0128372
134.155,99.59344,100.373,99.54653,0.013907,3.43e-07,0.004965929,0.001787349,0.000158247,0.006911868,0.007047798,0.0105673,0.0,0.000172083,1.54e-27,0.0107394,0.00295317,7.262e-17,0.00962523,0.00350088,0.000122489,0.0132486
136.065,99.57429,100.36,99.53005,0.008136847,5.62e-07,0.005198126,0.001854191,0.0001636,0.007216479,0.002083959,0.0113895,0.0,0.00017896,7.84e-27,0.0115684,0.00860806,2.304e-16,0.00994813,0.00360128,0.000126189,0.0136756
137.9744,99.57561,100.355,99.52444,-0.000806266,9.11e-07,0.005443124,0.001923958,0.000169165,0.007537158,0.003031684,0.012264,0.0,0.000186156,3.89e-26,0.01245012,-0.000869203,7.16901e-16,0.0102839,0.00370506,0.00013002,0.0141189
139.884,99.55466,100.349,99.53354,0.007136686,1.46e-06,0.00570174,0.0019968,0.000174949,0.007874954,0.003146874,0.0131931,0.0,0.000193687,1.89e-25,0.0133868,-0.00862382,2.1877e-15,0.010633,0.00381236,0.000133986,0.0145793
141.794,99.5511,100.342,99.55332,0.008670981,2.33e-06,0.005974854,0.002072872,0.000180963,0.008231021,0.00452396,0.0141792,0.0,0.000201571,8.98e-25,0.0143807,-0.00621517,6.54739e-15,0.0109961,0.00392331,0.000138092,0.0150575
143.704,99.53451,100.334,99.55558,0.007157741,3.68e-06,0.006263408,0.00215234,0.000187218,0.008606644,0.004948093,0.0152245,0.0,0.000209827,4.17e-24,0.0154343,-0.000298453,1.92176e-14,0.011374,0.00403806,0.000142344,0.0155544
145.614,99.532,100.318,99.55044,-0.002586562,5.75e-06,0.006568415,0.002235378,0.000193724,0.009003266,0.006304187,0.0163314,0.0,0.000218476,1.9e-23,0.0165499,0.00533555,5.53201e-14,0.0117672,0.00415676,0.000146748,0.0160707
147.524,99.51813,100.303,99.54369,0.0107653,8.9e-06,0.006890964,0.002322171,0.000200494,0.009422528,0.006869654,0.0175023,0.0,0.000227538,8.45e-23,0.0177298,0.0017855,1.56177e-13,0.0121765,0.00427956,0.000151311,0.0166073
149.433,99.50126,100.2996,99.53186,0.006325154,1.36e-05,0.007232228,0.002412917,0.000207539,0.009866329,0.0139909,0.0187393,0.0,0.000237036,3.68e-22,0.0189763,0.00740377,4.32417e-13,0.0126026,0.00440662,0.000156038,0.0171653
151.343,99.49572,100.273,99.52501,0.002356244,2.07e-05,0.007593468,0.002507822,0.000214872,0.0103369,0.004345949,0.0200447,0.0,0.000246994,1.57e-21,0.0202917,0.00295838,1.1742e-12,0.0130465,0.00453813,0.000160937,0.0177455
153.253,99.48161,100.2789,99.52048,0.0158549,3.12e-05,0.007976042,0.002607106,0.000222507,0.0108368,-0.008744204,0.0214208,0.0,0.000257438,6.53e-21,0.0216782,0.00239813,3.12701e-12,0.0135088,0.00467426,0.000166015,0.0183491
155.163,99.46146,100.284,99.51479,0.000518371,4.65e-05,0.008381415,0.002711003,0.000230458,0.0113694,-0.000670228,0.0228696,0.0,0.000268395,2.66e-20,0.023138,0.00383281,8.16714e-12,0.0139906,0.0048152,0.000171279,0.0189771
157.0727,99.44937,100.276,99.50689,0.006330346,6.87e-05,0.008811167,0.002819761,0.00023874,0.0119383,0.0102627,0.0243933,0.0,0.000279893,1.06e-19,0.0246732,0.00563403,2.092e-11,0.0144927,0.00496114,0.000176736,0.0196306
158.983,99.44897,100.249,99.49161,0.009697301,0.000100426,0.009267002,0.002933642,0.000247369,0.01254844,0.0126922,0.025994,0.0,0.000291964,4.14e-19,0.02628592,0.00712628,5.25539e-11,0.0150162,0.00511229,0.000182396,0.0203109
160.892,99.41864,100.232,99.48199,0.01246708,0.000145525,0.009750763,0.003052925,0.000256362,0.0132056,0.01226813,0.0276734,0.0,0.00030464,1.58e-18,0.027978,0.00324635,1.29479e-10,0.0155621,0.00526887,0.000188267,0.0210193
162.802,99.39447,100.213,99.47859,0.0187242,0.000208896,0.0102644,0.003177907,0.000265736,0.01391698,0.00700587,0.0294334,0.0,0.000317955,5.9e-18,0.0297513,0.00177503,3.12857e-10,0.0161316,0.0054311,0.000194358,0.0217571
164.712,99.35768,100.193,99.47234,0.012399,0.000297051,0.0108102,0.003308902,0.00027551,0.01469165,0.01365044,0.0312757,0.0,0.000331948,2.16e-17,0.0316076,0.00414697,7.41384e-10,0.0167258,0.00559921,0.000200678,0.0225257
166.622,99.32593,100.169,99.46289,0.0154987,0.000418442,0.0113903,0.003446245,0.000285702,0.0155407,0.008953658,0.0332018,0.0,0.000346656,7.71e-17,0.0335485,0.00598483,1.72303e-09,0.017346,0.00577346,0.000207237,0.0233267
168.532,99.31933,100.147,99.45253,0.00561838,0.000583909,0.0120074,0.003590291,0.000296335,0.0164779,0.012598,0.0352132,0.0,0.000362123,2.7e-16,0.03557536,0.00350815,3.92729e-09,0.0179934,0.0059541,0.000214046,0.0241616
170.442,99.29521,100.131,99.44915,0.0134358,0.000807162,0.01266415,0.003741421,0.00030743,0.0175202,0.007016329,0.0373111,0.0,0.000378393,9.23e-16,0.0376895,0.000890129,8.779e-09,0.0186695,0.00614141,0.000221115,0.0250321
172.351,99.27254,100.115,99.44755,0.008990329,0.001105302,0.0133635,0.003900035,0.00031901,0.0186879,0.0109958,0.0394966,0.0,0.000395513,3.09e-15,0.0398921,0.0061472,1.92464e-08,0.0193758,0.00633567,0.000228456,0.02594
174.261,99.2397,100.088,99.42929,0.014221,0.001499363,0.0141088,0.004066565,0.000331099,0.0200058,0.0173576,0.0417704,0.0,0.000413536,1.01e-14,0.0421839,0.011289,4.13812e-08,0.0201139,0.00653717,0.000236081,0.0268872
176.171,99.22112,100.0542,99.39533,0.023311,0.002014827,0.0149034,0.004241467,0.000343724,0.0215034,0.01565583,0.0441333,0.0,0.000432516,3.24e-14,0.0445658,0.0152264,8.72589e-08,0.0208853,0.00674625,0.000244002,0.0278756
178.081,99.1678,100.025,99.37606,0.0237298,0.002682093,0.0157511,0.004425228,0.00035691,0.0232154,0.0183472,0.0465858,0.0,0.00045251,1.02e-13,0.0470383,0.0106397,1.80454e-07,0.0216918,0.00696321,0.000252233,0.0289075
179.991,99.11436,99.98776,99.36244,0.02840561,0.003536839,0.0166563,0.004618369,0.000370688,0.0251822,0.0169439,0.0491279,0.0,0.000473582,3.11e-13,0.0496015,0.0045711,3.65996e-07,0.0225354,0.00718841,0.000260787,0.0299849
181.9,99.07551,99.96294,99.35017,0.0221434,0.004620211,0.0176232,0.004821445,0.000385088,0.02745,0.008136823,0.0517597,0.0,0.000495798,9.34e-13,0.0522555,0.0107811,7.2801e-07,0.0234179,0.00742221,0.00026968,0.0311105
183.81,99.02721,99.93811,99.32242,0.0257196,0.005978794,0.018657,0.005035047,0.000400141,0.030071,0.0193525,0.0544809,0.0,0.000519229,2.74e-12,0.05500013,0.014949,1.4202e-06,0.0243415,0.007665,0.000278927,0.0322869
185.72,98.97486,99.89689,99.30141,0.0254787,0.007664265,0.0197629,0.005259809,0.000415883,0.0331029,0.0206667,0.0572908,0.0,0.000543952,7.88e-12,0.0578348,0.00643512,2.71715e-06,0.0253084,0.00791716,0.000288543,0.0335168
187.63,98.92494,99.86484,99.29347,0.0371657,0.009732686,0.0209469,0.005496407,0.00043235,0.03660836,0.0174937,0.0601886,0.0,0.000570048,2.21e-11,0.0607587,0.0035553,5.09833e-06,0.026321,0.00817913,0.000298545,0.0348037
189.54,98.82674,99.83076,99.27435,0.0394222,0.0122433,0.0222154,0.005745564,0.000449579,0.0406539,0.0152841,0.0631731,0.0,0.000597607,6.08e-11,0.0637707,0.0133834,9.38199e-06,0.0273817,0.00845134,0.000308953,0.0361513
191.45,98.76833,99.79893,99.25165,0.0425117,0.0152571,0.0235754,0.006008053,0.000467612,0.0453082,0.0298719,0.0662428,0.0,0.000626721,1.64e-10,0.0668695,0.0135405,1.69322e-05,0.0284932,0.00873427,0.000319783,0.0375642
193.359,98.68273,99.7407,99.22209,0.0535755,0.0188343,0.02503464,0.006284702,0.000486492,0.05064018,0.0223475,0.0693959,0.0,0.000657491,4.3e-10,0.0700534,0.0139908,2.99697e-05,0.0296583,0.00902839,0.000331057,0.0390478
195.2693,98.58755,99.69205,99.20391,0.0490516,0.0230321,0.0266016,0.006576399,0.000506265,0.0567163,0.0292958,0.07263018,0.0,0.000690028,1.11e-09,0.0733202,0.00911078,5.20239e-05,0.0308802,0.00933422,0.000342795,0.0406092
197.179,98.44518,99.63198,99.1832,0.0773523,0.0279011,0.02828551,0.006884093,0.000526979,0.0635977,0.031741,0.0759433,0.0,0.000724446,2.79e-09,0.0766677,0.016368,8.85677e-05,0.0321618,0.00965231,0.000355019,0.0422577
199.089,98.3092,99.559,99.14398,0.0772268,0.0334823,0.0300966,0.007208805,0.000548687,0.07133641,0.04198276,0.0793323,0.0,0.000760872,6.87e-09,0.0800931,0.0210595,0.000147877,0.0335068,0.00998322,0.000367752,0.0440056
200.999,98.15472,99.49085,99.09419,0.083044,0.0398028,0.0320461,0.007551626,0.000571442,0.079972,0.0413493,0.082794,0.0,0.00079944,1.66e-08,0.0835935,0.0254839,0.000242144,0.0349186,0.0103276,0.000381019,0.0458693
202.909,97.97921,99.39578,99.04719,0.100182,0.0468725,0.03414643,0.007913732,0.000595304,0.0895279,0.0523555,0.086325,0.0,0.000840296,3.9e-08,0.0871654,0.0266778,0.000388867,0.0364012,0.010686,0.000394845,0.0478709
204.818,97.79395,99.28968,98.99055,0.113927,0.0546798,0.0364111,0.008296383,0.000620335,0.100008,0.0542823,0.0899214,0.0,0.000883596,9.01e-08,0.09080506,0.0327673,0.000612462,0.0379586,0.0110591,0.000409257,0.0500394
206.728,97.56133,99.18331,98.9329,0.109565,0.0631889,0.0388552,0.008700935,0.000646601,0.111392,0.06302136,0.0935789,0.0,0.000929509,2.03e-07,0.0945086,0.0318301,0.000946039,0.0395953,0.0114476,0.000424285,0.0524132
208.638,97.33479,99.05767,98.86206,0.12843,0.072337,0.0414952,0.009128845,0.000674172,0.123635,0.0676343,0.0972929,0.0,0.000978217,4.49e-07,0.0982716,0.035888,0.00143314,0.0413159,0.0118524,0.000439958,0.0550413
210.548,97.06102,98.91354,98.78422,0.164957,0.0820324,0.0443497,0.009581682,0.000703123,0.136667,0.0868088,0.101059,0.0,0.001029916,9.7e-07,0.102089,0.0459936,0.00212923,0.0431253,0.012274,0.000456308,0.0579849
212.458,96.75081,98.73009,98.69522,0.158941,0.0921542,0.0474387,0.0100611,0.000733533,0.150388,0.0966107,0.104871,0.0,0.001084818,2.05e-06,0.105957,0.0530571,0.00310246,0.045029,0.0127135,0.000473369,0.0613183
214.3676,96.41422,98.54501,98.59165,0.179597,0.102553,0.050785,0.010569,0.000765489,0.164673,0.0918144,0.108723,0.0,0.001143152,4.24e-06,0.109871,0.0474806,0.00443345,0.0470326,0.0131716,0.000491177,0.0651288
216.277,96.06811,98.35052,98.4884,0.191336,0.113055,0.0544133,0.0111073,0.000799081,0.179375,0.117209,0.112611,0.0,0.001205167,8.57e-06,0.113825,0.0687077,0.00621339,0.0491421,0.0136492,0.000509769,0.0695145
218.187,95.68886,98.11188,98.34621,0.218376,0.123463,0.0583514,0.0116781,0.000834405,0.194327,0.129451,0.116527,0.0,0.00127113,1.7e-05,0.117815,0.0841803,0.00854018,0.051364,0.0141474,0.000529186,0.0745808
220.097,95.2609,97.86064,98.17231,0.216506,0.133563,0.06263,0.0122838,0.000871566,0.209349,0.135583,0.120465,0.0,0.001341333,3.29e-05,0.121839,0.08839,0.0115122,0.0537052,0.0146672,0.000549468,0.080434
222.007,94.80988,97.58387,98.02279,0.253986,0.143134,0.0672835,0.0129267,0.000910672,0.224255,0.154705,0.124418,0.0,0.00141609,6.22e-05,0.125897,0.0862853,0.0152194,0.0561732,0.0152096,0.000570661,0.0871728
223.917,94.32351,97.28436,97.8206,0.25795,0.151951,0.0723498,0.0136095,0.000951844,0.238862,0.165507,0.12838,0.0,0.001495743,0.000115345,0.129991,0.10846,0.0197329,0.0587757,0.0157758,0.000592813,0.0948772
225.827,93.81705,96.95894,97.61776,0.284083,0.159798,0.0778715,0.0143353,0.000995206,0.253,0.182189,0.132342,0.0,0.001580664,0.000209138,0.134131,0.110371,0.025092,0.0615213,0.016367,0.000615972,0.103596
227.736,93.28547,96.60409,97.39536,0.282167,0.166472,0.0838958,0.015107,0.001040893,0.266516,0.1786337,0.136297,0.0,0.001671256,0.000370985,0.138339,0.122922,0.0312918,0.0644189,0.0169845,0.000640192,0.113335
229.646,92.72793,96.23636,97.13987,0.299315,0.171798,0.0904756,0.015928,0.001089051,0.279291,0.212789,0.140237,0.0,0.001767957,0.000643829,0.142649,0.139075,0.0382717,0.0674782,0.0176297,0.000665529,0.124045
231.556,92.12396,95.83412,96.87135,0.308776,0.175631,0.0976697,0.0168022,0.001139834,0.291243,0.210642,0.144155,0.0,0.001871245,0.001093137,0.147119,0.159517,0.0459067,0.0707096,0.018304,0.000692043,0.135612
233.4659,91.5274,95.37074,96.53026,0.325893,0.177864,0.105544,0.0177334,0.001193408,0.302335,0.232261,0.148041,0.0,0.001981639,0.001815805,0.151839,0.157616,0.054004,0.0741241,0.0190089,0.000719796,0.147857
235.376,90.90388,94.91892,96.25775,0.324929,0.178435,0.114172,0.0187261,0.00124995,0.312583,0.243246,0.151889,0.0,0.002099707,0.002950898,0.156939,0.147233,0.0623057,0.0777334,0.019746,0.000748856,0.160534
237.286,90.25411,94.43546,95.89275,0.344512,0.177328,0.123635,0.01978484,0.001309651,0.322057,0.277328,0.155689,0.0,0.002226067,0.004691693,0.162607,0.205521,0.0704986,0.0815503,0.0205171,0.000779294,0.173345
239.195,89.61682,93.94135,95.52433,0.335423,0.174575,0.134024,0.0209149,0.001372717,0.330886,0.257049,0.1594328,0.0,0.002361396,0.007297859,0.169092,0.208254,0.0782321,0.0855881,0.021324,0.000811184,0.185955
241.105,88.96292,93.42529,95.13618,0.343292,0.170251,0.145442,0.0221219,0.001439367,0.339254,0.281104,0.163112,0.0,0.002506432,0.0111058,0.176724,0.202652,0.0851414,0.0898615,0.0221686,0.000844608,0.198016
243.015,88.29445,92.89773,94.74741,0.348497,0.164476,0.158001,0.02341181,0.001509837,0.347399,0.280627,0.166718,0.0,0.002661983,0.0165348,0.185915,0.216512,0.0908758,0.0943857,0.0230529,0.000879651,0.209194
244.925,87.63528,92.358,94.30789,0.350246,0.157406,0.171826,0.0247914,0.001584382,0.355608,0.280837,0.170243,0.0,0.002828936,0.0240844,0.197156,0.224161,0.0951276,0.0991774,0.0239791,0.000916403,0.219201
246.835,86.95373,91.81446,93.8734,0.354644,0.149226,0.187055,0.0262679,0.001663276,0.364212,0.282245,0.173678,0.0,0.003008261,0.0343212,0.211007,0.234,0.09766,0.104254,0.0249496,0.00095496,0.227819
248.745,86.26962,91.27878,93.42461,0.372075,0.140144,0.203838,0.0278493,0.001746812,0.373578,0.284921,0.177014,0.0,0.003201025,0.0478499,0.228065,0.237555,0.0983283,0.109635,0.0259668,0.000995426,0.234925
250.654,85.54362,90.71639,92.96798,0.36764,0.130379,0.22234,0.0295443,0.00183531,0.384098,0.290057,0.180243,0.0,0.0034084,0.0652663,0.248918,0.253169,0.0970938,0.115339,0.0270333,0.00103791,0.240504
252.5642,84.78207,90.15052,92.47743,0.452595,0.120156,0.242734,0.0313623,0.00192911,0.396181,0.325448,0.183357,0.0,0.003631673,0.0870939,0.274083,0.256447,0.0940278,0.121388,0.0281519,0.00108253,0.24465
254.474,83.96736,89.49528,91.96473,0.415074,0.109696,0.265203,0.0333139,0.002028583,0.410242,0.359294,0.186349,0.0,0.003872264,0.113704,0.303925,0.268689,0.0893042,0.127805,0.0293255,0.0011294,0.247564
256.384,83.1048,88.77201,91.48396,0.469597,0.0992067,0.289933,0.0354104,0.002134128,0.426685,0.393412,0.18921,0.0,0.004131738,0.14523,0.338572,0.260992,0.0831839,0.134614,0.0305573,0.00117867,0.249534
258.294,82.2122,87.99349,90.96249,0.474623,0.0888783,0.317103,0.0376645,0.002246175,0.445892,0.422807,0.191933,0.0,0.00441182,0.181479,0.377824,0.261233,0.0759903,0.14184,0.0318507,0.00123047,0.250911
260.204,81.24646,87.15127,90.45988,0.525869,0.078878,0.346864,0.0400898,0.002365191,0.468197,0.465251,0.194511,0.0,0.004714419,0.221864,0.421089,0.268202,0.0680814,0.149509,0.0332091,0.00128495,0.252085
262.113,80.20109,86.23844,89.95212,0.563218,0.06934597,0.379321,0.0427016,0.00249168,0.49386,0.49673,0.196937,0.0,0.005041646,0.265361,0.467339,0.267327,0.0598206,0.157651,0.0346365,0.00134227,0.25345
264.023,79.14,85.2553,89.44208,0.582052,0.0603937,0.414481,0.0455166,0.002626189,0.523018,0.526016,0.199204,0.0,0.00539584,0.310512,0.515111,0.261526,0.0515494,0.166293,0.0361368,0.00140262,0.255382
265.933,78.00809,84.21511,88.9391,0.618391,0.0521036,0.452191,0.0485532,0.00276931,0.555617,0.560191,0.201306,0.0,0.005779593,0.355475,0.562561,0.264825,0.0435661,0.175467,0.0377144,0.00146616,0.258213
267.843,76.75708,83.12902,88.42967,0.650655,0.0445296,0.492026,0.0518317,0.002921685,0.591309,0.580329,0.203239,0.0,0.006195786,0.398136,0.60757,0.268605,0.0361098,0.185203,0.0393739,0.0015331,0.26222
269.753,75.49179,81.98911,87.90678,0.678772,0.0376994,0.53312,0.05537439,0.003084012,0.629278,0.606064,0.204995,0.0,0.006647624,0.436258,0.647901,0.283455,0.029353,0.195534,0.0411202,0.00160364,0.267611
271.6625,74.14124,80.80539,87.39514,0.716629,0.0316174,0.573897,0.0592061,0.003257048,0.667978,0.632439,0.206571,0.0,0.007138673,0.467677,0.681386,0.267485,0.0234008,0.20649,0.0429586,0.00167802,0.274528
273.572,72.77382,79.57068,86.84219,0.737259,0.0262677,0.611648,0.06335409,0.003441616,0.704712,0.663839,0.207961,0.0,0.007672911,0.4905,0.706134,0.28968,0.0182962,0.218104,0.0448948,0.00175648,0.283052
275.482,71.32648,78.28183,86.26103,0.765942,0.02161845,0.641875,0.0678486,0.003638614,0.73498,0.675736,0.209163,0.0,0.008254781,0.503295,0.720713,0.308656,0.0140295,0.230405,0.0469346,0.00183926,0.293209
277.392,69.859,76.96023,85.6679,0.775278,0.0176251,0.657298,0.0727231,0.003849017,0.751495,0.716582,0.210173,0.0,0.008889253,0.505239,0.724301,0.319882,0.0105506,0.24342,0.0490845,0.00192667,0.304982
279.302,68.37486,75.60121,85.04459,0.773173,0.0142346,0.646498,0.0780146,0.00407389,0.742821,0.722028,0.210987,0.0,0.009581891,0.496205,0.716774,0.338679,0.00778148,0.257172,0.0513515,0.00201898,0.318324
281.212,66.92008,74.2072,84.36608,0.744909,0.0113884,0.592518,0.0837641,0.004314395,0.691984,0.727693,0.211604,0.0,0.0103389,0.476777,0.69872,0.362535,0.00562857,0.271676,0.0537427,0.00211652,0.333163
283.121,65.53724,72.79706,83.67583,0.695711,0.009025763,0.473618,0.0900171,0.004571798,0.577232,0.73239,0.212022,0.0,0.01116742,0.448188,0.671378,0.374677,0.00399288,0.286939,0.0562661,0.00221965,0.349418
285.031,64.33151,71.40629,82.94321,0.511919,0.007086173,0.275988,0.0968238,0.004847487,0.384745,0.724473,0.21224,0.0,0.0120752,0.412189,0.636504,0.393108,0.00277796,0.302955,0.05893,0.00232872,0.366992
286.941,63.61879,70.03627,82.14119,0.225072,0.005511183,0.0548201,0.10424,0.005142978,0.169714,0.698675,0.212256,0.0,0.0130713,0.37087,0.596198,0.424896,0.00189547,0.319699,0.0617435,0.00244413,0.385782
288.851,63.34082,68.71397,81.34136,0.167654,0.004246031,0.0,0.112328,0.005459933,0.122034,0.694816,0.212072,0.0,0.0141656,0.326466,0.552704,0.453957,0.00126841,0.33712,0.0647161,0.00256632,0.405671
290.7608,62.97614,67.43928,80.45696,0.190064,0.003240609,0.0,0.121155,0.005800173,0.130195,0.654571,0.211687,0.0,0.0153695,0.281154,0.508211,0.461963,0.000832438,0.355135,0.0678581,0.00269575,0.426522
292.671,62.61315,66.2233,79.53893,0.210553,0.002450052,0.0,0.130796,0.006165694,0.139412,0.595854,0.211102,0.0,0.016696,0.236887,0.464686,0.492112,0.000535793,0.373614,0.0711806,0.00283292,0.448163
294.58,62.18291,65.16078,78.58509,0.222742,0.001834971,0.0,0.141336,0.006558693,0.149729,0.505181,0.21032,0.0,0.0181597,0.195267,0.423747,0.503574,0.000338215,0.392365,0.0746954,0.00297837,0.470377
296.49,61.75208,64.31779,77.60354,0.233785,0.001361408,0.0,0.152864,0.006981583,0.161207,0.3784,0.209343,0.0,0.01977719,0.157474,0.386594,0.533498,0.000209383,0.411114,0.078415,0.00313268,0.492871
298.4,61.29655,63.75733,76.57242,0.237225,0.001000582,0.0,0.165481,0.007437018,0.173919,0.20439,0.208172,0.0,0.0215675,0.124244,0.353984,0.546588,0.000127128,0.429478,0.0823531,0.00329647,0.515255
300.31,60.78984,63.43009,75.50204,0.283763,0.000728488,0.0,0.179295,0.007927926,0.187951,0.159773,0.206813,0.0,0.0235521,0.0959035,0.326268,0.566605,7.56993e-05,0.44693,0.086524,0.00347043,0.537
302.22,60.27307,63.1534,74.40654,0.276606,0.000525408,0.0,0.194421,0.008457533,0.203404,0.147793,0.205267,0.0,0.025756,0.0724242,0.303447,0.587194,4.42073e-05,0.462749,0.0909432,0.00365529,0.557391
304.13,59.72198,62.86119,73.2723,0.300482,0.000375385,0.0,0.210984,0.009029404,0.220389,0.159061,0.20354,0.0,0.0282074,0.0535086,0.285256,0.589859,2.53191e-05,0.475962,0.0956272,0.00385185,0.575467
306.039,59.13349,62.52576,72.15567,0.303535,0.000265682,0.0,0.229113,0.009647475,0.239026,0.172267,0.201637,0.0,0.030939,0.038677,0.271253,0.582769,1.42217e-05,0.48527,0.100594,0.00406097,0.589939
307.949,58.52887,62.18764,71.02787,0.331946,0.000186274,0.0,0.248939,0.0103161,0.259441,0.196651,0.199562,0.0,0.0339881,0.027351,0.260901,0.589424,7.83447e-06,0.488951,0.105862,0.00428359,0.599104
309.8591,57.88182,61.8026,69.90312,0.34513,0.000129374,0.0,0.270588,0.0110401,0.281757,0.20417,0.197321,0.0,0.0373981,0.0189227,0.253642,0.583554,4.2327e-06,0.484761,0.111451,0.00452072,0.600737
311.769,57.21307,61.40896,68.801,0.367185,8.9e-05,0.0,0.294174,0.0118249,0.306087,0.220234,0.194921,0.0,0.0412187,0.0128081,0.248948,0.576056,2.24273e-06,0.46984,0.117383,0.00477347,0.591999
313.679,56.47936,60.99182,67.73263,0.406754,6.07e-05,0.0,0.319782,0.0126763,0.332518,0.240058,0.192368,0.0,0.0455075,0.008481582,0.246357,0.547363,1.16544e-06,0.440698,0.123681,0.00504304,0.569423
315.589,55.71585,60.5422,66.71831,0.404497,4.1e-05,0.0,0.347445,0.013601,0.361087,0.231843,0.189668,0.0,0.0503312,0.005494888,0.245494,0.50194,5.93952e-07,0.393418,0.130368,0.00533073,0.529117
317.498,54.91519,60.05484,65.77707,0.427886,2.74e-05,0.0,0.377112,0.0146063,0.391746,0.256395,0.18683,0.0,0.0557672,0.003482821,0.24608,0.484561,2.96869e-07,0.324479,0.13747,0.00563797,0.467587
319.408,54.04442,59.54761,64.92322,0.464926,1.82e-05,0.0,0.408587,0.0157003,0.424306,0.267019,0.183859,0.0,0.061905,0.002159702,0.247924,0.404334,1.45523e-07,0.233083,0.145013,0.0059663,0.384063
321.318,53.16013,59.02735,64.22545,0.475388,1.19e-05,0.0,0.441452,0.01689229,0.458356,0.279025,0.180764,0.0,0.0688488,0.001310228,0.250923,0.330799,6.99596e-08,0.12692,0.153027,0.00631742,0.286264
323.228,52.24059,58.47572,63.66164,0.469094,7.75e-06,0.0,0.474935,0.0181922,0.493135,0.296597,0.177553,0.0,0.0767189,0.000777661,0.25505,0.215416,3.29849e-08,0.033593,0.161539,0.00669317,0.201826
325.138,51.2758,57.91947,63.36023,0.543703,4.99e-06,0.0,0.507719,0.0196115,0.527336,0.302917,0.174234,0.0,0.085655,0.000451569,0.260341,0.169842,1.52523e-08,0.000138658,0.170581,0.00709557,0.177815
327.048,50.21467,57.31353,62.98979,0.545797,3.18e-06,0.0,0.537641,0.0211628,0.558807,0.31641,0.170816,0.0,0.0958178,0.000256536,0.26689,0.203369,6.91682e-09,0.0,0.180182,0.00752683,0.187709
328.9574,49.17685,56.68004,62.61077,0.56892,2.01e-06,0.0,0.561253,0.0228602,0.584115,0.336967,0.167305,0.0,0.107392,0.000142582,0.27484,0.20494,3.0763e-09,0.0,0.190375,0.00798935,0.198365
330.867,48.08504,56.03213,62.19221,0.583214,1.26e-06,0.0,0.573171,0.0247194,0.597892,0.34069,0.163712,0.0,0.120587,7.75e-05,0.284376,0.223784,1.34185e-09,0.0,0.201191,0.0084858,0.209677
332.777,46.96019,55.34717,61.74874,0.58234,7.81e-07,0.0,0.565218,0.0267581,0.591977,0.377337,0.160044,0.0,0.135637,4.12e-05,0.295722,0.23722,5.74023e-10,0.0,0.212659,0.00901906,0.221678
334.687,45.852,54.62397,61.28622,0.57758,4.8e-07,0.0,0.525555,0.0289959,0.554551,0.386123,0.15631,0.0,0.152799,2.15e-05,0.30913,0.255604,2.40828e-10,0.0,0.224807,0.00959232,0.234399
336.597,44.77394,53.87169,60.78883,0.500358,2.92e-07,0.0,0.438933,0.0314548,0.470388,0.402863,0.152519,0.0,0.172338,1.09e-05,0.324867,0.27038,9.90911e-11,0.0,0.23766,0.0102091,0.247869
338.507,44.04952,53.09344,60.2571,0.173983,1.76e-07,0.0,0.292725,0.0341592,0.326884,0.419624,0.148678,0.0,0.19451,5.44e-06,0.343194,0.283277,3.99866e-11,0.0,0.251237,0.0108732,0.26211
340.416,43.9875,52.26972,59.68105,0.03541685,1.05e-07,0.0,0.105492,0.0371363,0.142628,0.441333,0.144797,0.0,0.219516,2.65e-06,0.364316,0.305299,1.58251e-11,0.0,0.26555,0.0115889,0.277139
342.326,43.89871,51.41685,59.1168,0.0509574,6.23e-08,0.0,0.000774577,0.0404162,0.0411908,0.451475,0.140884,0.0,0.247414,1.27e-06,0.3883,0.314604,6.14227e-12,0.0,0.280599,0.0123609,0.29296
344.236,43.79592,50.5349,58.4873,0.05529288,3.65e-08,0.0,0.0,0.044032,0.044032,0.462544,0.136947,0.0,0.277965,5.9e-07,0.414913,0.320421,2.3381e-12,0.0,0.296367,0.0131943,0.309562
346.146,43.68661,49.63438,57.85725,0.0582198,2.12e-08,0.0,0.0,0.04802,0.04802,0.472047,0.132994,0.0,0.31033,2.69e-07,0.443324,0.345895,8.72869e-13,0.0,0.312818,0.0140948,0.326913
348.0557,43.51383,48.73095,57.19333,0.0700685,1.22e-08,0.0,0.0,0.0524195,0.0524195,0.482917,0.129033,0.0,0.342529,1.2e-07,0.4715615,0.362205,3.19585e-13,0.0,0.329885,0.0150686,0.344954
349.966,43.44223,47.79842,56.4611,0.0680062,6.94e-09,0.0,0.0,0.0572725,0.0572725,0.481744,0.125071,0.0,0.370425,5.25e-08,0.495496,0.391857,1.14756e-13,0.0,0.34746,0.0161227,0.363582
351.875,43.29816,46.89117,55.71214,0.0683202,3.92e-09,0.0,0.0,0.0626228,0.06262284,0.471597,0.121116,0.0,0.385908,2.25e-08,0.507024,0.37929,4.04124e-14,0.0,0.365381,0.0172649,0.382646
353.785,43.14471,46.02149,54.94571,0.0907724,2.19e-09,0.0,0.0,0.0685145,0.0685145,0.446333,0.117175,0.0,0.37389,9.39e-09,0.491064,0.43341,1.39575e-14,0.0,0.383414,0.0185034,0.401917
355.695,42.97275,45.20679,54.13787,0.0936732,1.21e-09,0.0,0.0,0.07498937,0.0749894,0.382866,0.113254,0.0,0.309054,3.84e-09,0.422308,0.416299,4.7277e-15,0.0,0.401228,0.0198479,0.421076
357.605,42.79182,44.58361,53.29782,0.0964588,6.66e-10,0.0,0.0,0.0820826,0.0820826,0.2145,0.109362,0.0,0.164334,1.54e-09,0.273695,0.455334,1.57052e-15,0.0,0.418361,0.0213086,0.43967
359.515,42.61143,44.4192,52.42694,0.0943278,3.62e-10,0.0,0.0,0.08981564,0.08981564,0.0358775,0.105503,0.0,0.007424236,6.02e-10,0.112927,0.446113,5.1167e-16,0.0,0.434179,0.0228972,0.457077
361.425,42.42176,44.3445,51.56871,0.105145,1.95e-10,0.0,0.0,0.09818511,0.09818511,0.0472503,0.101684,0.0,0.0,2.3e-10,0.101684,0.466675,1.63489e-16,0.0,0.447822,0.0246265,0.472448
363.334,42.21235,44.24523,50.67087,0.104161,1.04e-10,0.0,0.0,0.107145,0.107145,0.05767011,0.09791,0.0,0.0,8.64e-11,0.09791,0.477472,5.12314e-17,0.0,0.458127,0.0265107,0.484638
365.244,42.00641,44.12264,49.75904,0.122864,5.49e-11,0.0,0.0,0.116577,0.116577,0.0683098,0.09418716,0.0,0.0,3.17e-11,0.09418716,0.477676,1.57448e-17,0.0,0.46355,0.0285655,0.492115
367.154,41.78287,43.98675,48.84024,0.11821,2.88e-11,0.0,0.0,0.126247,0.126247,0.0786929,0.09052,0.0,0.0,1.14e-11,0.09052,0.478236,4.74557e-18,0.0,0.462056,0.0308083,0.492864
369.064,41.53807,43.83733,47.9271,0.134829,1.49e-11,0.0,0.0,0.135733,0.135733,0.0784312,0.0869133,0.0,0.0,3.99e-12,0.0869133,0.479399,1.40279e-18,0.0,0.451026,0.0332585,0.484284
370.974,41.28381,43.67763,47.03418,0.145636,7.66e-12,0.0,0.0,0.144313,0.144313,0.0835048,0.0833713,0.0,0.0,1.37e-12,0.0833713,0.451862,4.06674e-19,0.0,0.427203,0.0359373,0.46314
372.883,41.00049,43.50224,46.22367,0.13563,3.9e-12,0.0,0.0,0.150791,0.150791,0.0976213,0.0798978,0.0,0.0,4.6e-13,0.0798978,0.423808,1.15625e-19,0.0,0.386813,0.0388682,0.425682
374.793,40.73091,43.31378,45.41825,0.1476,1.96e-12,0.0,0.0,0.153235,0.153235,0.0956001,0.0764966,0.0,0.0,1.51e-13,0.0764966,0.393862,3.22411e-20,0.0,0.326162,0.0420769,0.368239
376.703,40.43525,43.13362,44.71963,0.158815,9.81e-13,0.0,0.0,0.1486352,0.1486352,0.105816,0.0731708,0.0,0.0,4.86e-14,0.0731708,0.315321,8.81697e-21,0.0,0.243439,0.0455915,0.289031
378.613,40.14133,42.9145,44.22274,0.139667,4.85e-13,0.0,0.0,0.132608,0.132608,0.107177,0.0699233,0.0,0.0,1.53e-14,0.0699233,0.160841,2.36472e-21,0.0,0.143399,0.0494425,0.192841
380.523,39.90077,42.70935,44.10005,0.0856879,2.38e-13,0.0,0.0,0.0999443,0.0999443,0.116167,0.0667567,0.0,0.0,4.7e-15,0.0667567,0.0338092,6.22002e-22,0.0,0.0474814,0.0536624,0.101144
382.433,39.82526,42.49619,44.04139,0.0238817,1.15e-13,0.0,0.0,0.049435,0.049435,0.115838,0.0636732,0.0,0.0,1.42e-15,0.0636732,0.0404539,1.60456e-22,0.0,0.00127082,0.0582857,0.0595565
384.342,39.8005,42.26292,43.93294,0.005796339,5.55e-14,0.0,0.0,0.004063501,0.004063501,0.122152,0.0606745,0.0,0.0,4.17e-16,0.0606745,0.0732056,4.05948e-23,0.0,0.0,0.0633481,0.0633481
386.2523,39.78942,42.02912,43.76998,0.005796338,2.64e-14,0.0,0.0,0.0,2.64e-14,0.135227,0.0577624,0.0,0.0,1.2e-16,0.0577624,0.0966945,1.00725e-23,0.0,0.0,0.0688853,0.0688853
388.162,39.78035,41.75241,43.57012,0.004754372,1.25e-14,0.0,0.0,0.0,1.25e-14,0.132729,0.0549379,0.0,0.0,3.39e-17,0.0549379,0.0983595,2.45106e-24,0.0,0.0,0.0749307,0.0749307
390.072,39.75516,41.50635,43.40746,0.0171219,5.83e-15,0.0,0.0,0.0,5.83e-15,0.13386,0.052202,0.0,0.0,9.34e-18,0.052202,0.0791641,5.84956e-25,0.0,0.0,0.081513,0.081513
391.982,39.73854,41.24539,43.24702,0.002659922,2.7e-15,0.0,0.0,0.0,2.7e-15,0.14041,0.0495555,0.0,0.0,2.52e-18,0.0495555,0.0953175,1.36913e-25,0.0,0.0,0.0886504,0.0886504
393.892,39.7335,40.96348,43.04031,0.00553979,1.24e-15,0.0,0.0,0.0,1.24e-15,0.145207,0.0469985,0.0,0.0,6.65e-19,0.0469985,0.111329,3.1428e-26,0.0,0.0,0.0963437,0.0963437
395.801,39.71638,40.69051,42.82163,0.0102889,5.62e-16,0.0,0.0,0.0,5.62e-16,0.145254,0.0445313,0.0,0.0,1.72e-19,0.0445313,0.118471,7.07522e-27,0.0,0.0,0.104564,0.104564
397.711,39.70579,40.4181,42.59414,0.0,2.53e-16,0.0,0.0,0.0,2.53e-16,0.120707,0.0421537,0.0,0.0,4.34e-20,0.0421537,0.116764,1.56212e-27,0.0,0.0,0.113234,0.113234
399.621,39.70579,40.26689,42.36903,0.006346181,1.13e-16,0.0,0.0,0.0,1.13e-16,0.0421868,0.0398652,0.0,0.0,1.07e-20,0.0398652,0.121885,3.38253e-28,0.0,0.0,0.122203,0.122203
401.531,39.67809,40.22595,42.13408,0.008157709,4.99e-17,0.0,0.0,0.0,4.99e-17,0.013242,0.0376652,0.0,0.0,2.6e-21,0.0376652,0.127839,7.18322e-29,0.0,0.0,0.131198,0.131198
403.441,39.67761,40.21089,41.88855,0.002995057,2.18e-17,0.0,0.0,0.0,2.18e-17,0.00255517,0.035553,0.0,0.0,6.14e-22,0.035553,0.133593,1.49606e-29,0.0,0.0,0.139766,0.139766
405.3506,39.6595,40.20529,41.62816,0.00387459,9.46e-18,0.0,0.0,0.0,9.46e-18,0.009163149,0.0335274,0.0,0.0,1.42e-22,0.0335274,0.146982,3.05583e-30,0.0,0.0,0.147167,0.147167
407.26,39.65944,40.19298,41.33279,0.003947976,4.06e-18,0.0,0.0,0.0,4.06e-18,0.004482112,0.0315873,0.0,0.0,3.22e-23,0.0315873,0.135342,6.12155e-31,0.0,0.0,0.152234,0.152234
409.17,39.6534,40.17266,41.06938,0.00528844,1.73e-18,0.0,0.0,0.0,1.73e-18,0.01038833,0.0297313,0.0,0.0,7.13e-24,0.0297313,0.144971,1.20267e-31,0.0,0.0,0.153155,0.153155
411.08,39.63779,40.15376,40.77757,0.0105402,7.28e-19,0.0,0.0,0.0,7.28e-19,0.009906617,0.0279578,0.0,0.0,1.55e-24,0.0279578,0.157852,2.31729e-32,0.0,0.0,0.147225,0.147225
412.99,39.64282,40.13953,40.51883,0.00341936,3.04e-19,0.0,0.0,0.0,3.04e-19,0.0107078,0.0262652,0.0,0.0,3.28e-25,0.0262652,0.131164,4.37892e-33,0.0,0.0,0.130684,0.130684
414.9,39.61612,40.11153,40.26577,0.006340895,1.26e-19,0.0,0.0,0.0,1.26e-19,0.00992753,0.0246518,0.0,0.0,6.8e-26,0.0246518,0.107863,8.11532e-34,0.0,0.0,0.0993111,0.0993111
416.81,39.60756,40.09203,40.14154,0.0105508,5.15e-20,0.0,0.0,0.0,5.15e-20,0.0109067,0.0231155,0.0,0.0,1.38e-26,0.0231155,0.027285,1.47501e-34,0.0,0.0,0.0523134,0.0523134
418.719,39.5864,40.07328,40.12435,0.002366706,2.09e-20,0.0,0.0,0.0,2.09e-20,0.0103045,0.02165446,0.0,0.0,2.74e-27,0.02165446,0.00611574,2.62928e-35,0.0,0.0,0.00722715,0.00722715
420.629,39.57026,40.06147,40.10974,0.008885551,8.39e-21,0.0,0.0,0.0,8.39e-21,0.006073847,0.0202665,0.0,0.0,5.33e-28,0.0202665,0.0118336,4.59652e-36,0.0,0.0,0.0,4.59652e-36
422.539,39.56071,40.03548,40.08875,0.005361722,3.34e-21,0.0,0.0,0.0,3.34e-21,0.0151322,0.0189496,0.0,0.0,1.01e-28,0.0189496,0.00742999,7.88084e-37,0.0,0.0,0.0,7.88084e-37
424.4489,39.55113,40.02606,40.06966,0.005016145,1.32e-21,0.0,0.0,0.0,1.32e-21,0.002560464,0.0177015,0.0,0.0,1.88e-29,0.0177015,0.00796402,1.32516e-37,0.0,0.0,0.0,1.32516e-37
426.359,39.5471,40.01588,40.05943,0.001843115,5.15e-22,0.0,0.0,0.0,5.15e-22,0.005497871,0.01651993,0.0,0.0,3.43e-30,0.01651993,0.00625186,2.18532e-38,0.0,0.0,0.0,2.18532e-38
428.269,39.54055,40.00733,40.05208,0.00549266,1.99e-22,0.0,0.0,0.0,1.99e-22,0.00301597,0.0154026,0.0,0.0,6.1e-31,0.0154026,0.00119905,3.53438e-39,0.0,0.0,0.0,3.53438e-39
430.178,39.52291,39.99756,40.05208,0.01073394,7.65e-23,0.0,0.0,0.0,7.65e-23,0.0125876,0.0143473,0.0,0.0,1.06e-31,0.0143473,-0.00474392,5.60613e-40,0.0,0.0,0.0,5.60613e-40
432.088,39.49773,39.9747,40.06958,0.009362025,2.91e-23,0.0,0.0,0.0,2.91e-23,0.006780712,0.0133516,0.0,0.0,1.81e-32,0.0133516,-0.00503705,8.72096e-41,0.0,0.0,0.0,8.72096e-41
433.998,39.49169,39.9601,40.06396,0.001848318,1.09e-23,0.0,0.0,0.0,1.09e-23,0.006225664,0.01241326,0.0,0.0,3.02e-33,0.01241326,0.00940401,1.33051e-41,0.0,0.0,0.0,1.33051e-41
435.908,39.48766,39.94459,40.04304,0.009493052,4.08e-24,0.0,0.0,0.0,4.08e-24,0.0100637,0.0115299,0.0,0.0,4.92e-34,0.0115299,0.00660265,1.99077e-42,0.0,0.0,0.0,1.99077e-42
437.818,39.46851,39.93242,40.03571,0.006665535,1.5e-24,0.0,0.0,0.0,1.5e-24,0.005487409,0.0106993,0.0,0.0,7.85e-35,0.0106993,0.00444543,2.9213e-43,0.0,0.0,0.0,2.9213e-43
439.728,39.45393,39.91613,40.02711,0.0123258,5.51e-25,0.0,0.0,0.0,5.51e-25,0.009602938,0.009919136,0.0,0.0,1.23e-35,0.009919136,0.00385374,4.2042e-44,0.0,0.0,0.0,4.2042e-44
441.637,39.4437,39.90799,40.02093,0.005806936,1.99e-25,0.0,0.0,0.0,1.99e-25,0.000214681,0.009187139,0.0,0.0,1.87e-36,0.009187139,0.00648753,5.93393e-45,0.0,0.0,0.0,5.93393e-45
443.5472,39.4272,39.89902,40.00896,0.001052477,7.16e-26,0.0,0.0,0.0,7.16e-26,0.009377802,0.008501103,0.0,0.0,2.8e-37,0.008501103,0.00181691,8.21395e-46,0.0,0.0,0.0,8.21395e-46
445.457,39.41864,39.89496,40.00223,0.00659746,2.55e-26,0.0,0.0,0.0,2.55e-26,0.001225311,0.007858847,0.0,0.0,4.09e-38,0.007858847,0.00946685,1.1151e-46,0.0,0.0,0.0,1.1151e-46
447.367,39.41159,39.87746,39.98245,0.000523618,8.97e-27,0.0,0.0,0.0,8.97e-27,0.0100847,0.007258233,0.0,0.0,5.84e-39,0.007258233,0.00327773,1.48466e-47,0.0,0.0,0.0,1.48466e-47
449.277,39.39755,39.8579,39.98471,0.009759996,3.13e-27,0.0,0.0,0.0,3.13e-27,0.009157868,0.006697173,0.0,0.0,8.17e-40,0.006697173,-0.00148181,1.93861e-48,0.0,0.0,0.0,1.93861e-48
451.187,39.38038,39.84294,39.98754,0.000261685,1.08e-27,0.0,0.0,0.0,1.08e-27,0.002555144,0.006173632,0.0,0.0,1.12e-40,0.006173632,-0.000921545,2.4826e-49,0.0,0.0,0.0,2.4826e-49
453.096,39.3869,39.84371,39.99094,0.003958465,3.71e-28,0.0,0.0,0.0,3.71e-28,0.006503243,0.005685628,0.0,0.0,1.5e-41,0.005685628,-0.000680666,3.11798e-50,0.0,0.0,0.0,3.11798e-50
455.006,39.47414,39.81632,39.98081,-0.0527529,1.26e-28,0.0,0.0,0.0,1.26e-28,0.003303808,0.005231241,0.0,0.0,1.96e-42,0.005231241,0.00650317,3.84054e-51,0.0,0.0,0.0,3.84054e-51
456.916,39.45913,39.81638,39.97043,0.0232795,4.22e-29,0.0,0.0,0.0,4.22e-29,0.0138547,0.00480861,0.0,0.0,2.51e-43,0.00480861,0.00310495,4.63941e-52,0.0,0.0,0.0,4.63941e-52
458.826,39.42924,39.79346,39.97305,0.0147291,1.41e-29,0.0,0.0,0.0,1.41e-29,0.002345706,0.004415938,0.0,0.0,3.15e-44,0.004415938,0.00117815,5.49647e-53,0.0,0.0,0.0,5.49647e-53
460.736,39.39179,39.7944,39.9666,0.0199861,4.64e-30,0.0,0.0,0.0,4.64e-30,0.004466395,0.004051491,0.0,0.0,3.87e-45,0.004051491,0.00296886,6.38641e-54,0.0,0.0,0.0,6.38641e-54
462.6455,39.36071,39.78707,39.95867,0.0174885,1.51e-30,0.0,0.0,0.0,1.51e-30,0.001487054,0.003713602,0.0,0.0,4.64e-46,0.003713602,0.0062257,7.27749e-55,0.0,0.0,0.0,7.27749e-55
464.555,39.32448,39.77853,39.94433,0.014462,4.9e-31,0.0,0.0,0.0,4.9e-31,0.006403711,0.003400669,0.0,0.0,5.45e-47,0.003400669,0.00652413,8.13313e-56,0.0,0.0,0.0,8.13313e-56
466.465,39.31078,39.76871,39.93746,0.00105768,1.57e-31,0.0,0.0,0.0,1.57e-31,0.007471907,0.003111157,0.0,0.0,6.26e-48,0.003111157,0.002351,8.91425e-57,0.0,0.0,0.0,8.91425e-57
468.375,39.30178,39.75572,39.94108,0.0121372,4.99e-32,0.0,0.0,0.0,4.99e-32,0.003848524,0.002843597,0.0,0.0,7.04e-49,0.002843597,-0.00650319,9.58217e-58,0.0,0.0,0.0,9.58217e-58
470.285,39.27256,39.74715,39.94175,0.0142421,1.57e-32,0.0,0.0,0.0,1.57e-32,0.005099944,0.002596586,0.0,0.0,7.74e-50,0.002596586,0.00623093,1.01017e-58,0.0,0.0,0.0,1.01017e-58
472.195,39.24912,39.73944,39.92979,0.0105507,4.89e-33,0.0,0.0,0.0,4.89e-33,0.002560446,0.002368787,0.0,0.0,8.32e-51,0.002368787,0.00265989,1.04442e-59,0.0,0.0,0.0,1.04442e-59
474.104,39.23929,39.72928,39.9298,0.002654709,1.51e-33,0.0,0.0,0.0,1.51e-33,0.007058218,0.002158926,0.0,0.0,8.76e-52,0.002158926,-0.0,1.05903e-60,0.0,0.0,0.0,1.05903e-60
476.014,39.22304,39.71054,39.9298,0.005256939,4.62e-34,0.0,0.0,0.0,4.62e-34,0.009351582,0.001965795,0.0,0.0,9.02e-53,0.001965795,-0.0,1.05316e-61,0.0,0.0,0.0,1.05316e-61
477.924,39.21209,39.69995,39.93037,0.0110952,1.4e-34,0.0,0.0,0.0,1.4e-34,0.006393253,0.001788245,0.0,0.0,9.09e-54,0.001788245,-0.000581203,1.02714e-62,0.0,0.0,0.0,1.02714e-62
479.834,39.19847,39.68407,39.92987,0.008691909,4.2e-35,0.0,0.0,0.0,4.2e-35,0.00852955,0.001625191,0.0,0.0,8.95e-55,0.001625191,0.00111528,9.82466e-64,0.0,0.0,0.0,9.82466e-64
481.7438,39.18589,39.68,39.93093,0.006330462,1.25e-35,0.0,0.0,0.0,1.25e-35,-0.000209405,0.001475606,0.0,0.0,8.63e-56,0.001475606,-0.00528322,9.2163e-65,0.0,0.0,0.0,9.2163e-65
483.654,39.17179,39.67145,39.93886,0.009603016,3.68e-36,0.0,0.0,0.0,3.68e-36,0.006848791,0.00133852,0.0,0.0,8.14e-57,0.00133852,0.00267566,8.47905e-66,0.0,0.0,0.0,8.47905e-66
485.563,39.1466,39.65728,39.92979,0.005167945,1.07e-36,0.0,0.0,0.0,1.07e-36,0.008498158,0.00121302,0.0,0.0,7.51e-58,0.00121302,0.0041522,7.65048e-67,0.0,0.0,0.0,7.65048e-67
487.473,39.14559,39.63687,39.92414,-0.003429672,3.1e-37,0.0,0.0,0.0,3.1e-37,0.009335891,0.001098246,0.0,0.0,6.78e-59,0.001098246,0.000884886,6.7699e-68,0.0,0.0,0.0,6.7699e-68
489.383,39.14559,39.61893,39.92414,0.0109591,8.87e-38,0.0,0.0,0.0,8.87e-38,0.011556,0.00099339,0.0,0.0,5.99e-60,0.00099339,0.000293223,5.87526e-69,0.0,0.0,0.0,5.87526e-69
491.293,39.12292,39.5945,39.923,0.002570834,2.52e-38,0.0,0.0,0.0,2.52e-38,0.00703197,0.000897695,0.0,0.0,5.18e-61,0.000897695,0.00236149,5.00062e-70,0.0,0.0,0.0,5.00062e-70
493.203,39.12242,39.59624,39.9162,0.0104722,7.07e-39,0.0,0.0,0.0,7.07e-39,0.000853512,0.000810449,0.0,0.0,4.38e-62,0.000810449,0.00260232,4.17418e-71,0.0,0.0,0.0,4.17418e-71
495.113,39.11235,39.58541,39.91149,-0.004523955,1.97e-39,0.0,0.0,0.0,1.97e-39,0.004476808,0.00073099,0.0,0.0,3.62e-63,0.00073099,0.00423076,3.4172e-72,0.0,0.0,0.0,3.4172e-72
497.022,39.11499,39.57659,39.90602,0.0111163,5.42e-40,0.0,0.0,0.0,5.42e-40,0.005115612,0.000658698,0.0,0.0,2.93e-64,0.000658698,3.55271e-15,2.7436e-73,0.0,0.0,0.0,2.7436e-73
497.977,39.09472,39.57415,39.90602,0.0212271,2.84e-40,0.0,0.0,0.0,2.84e-40,0.002555215,0.000625056,0.0,0.0,8.27e-65,0.000625056,-0.0,7.71758e-74,0.0,0.0,0.0,7.71758e-74