File: data/NH4_deconvoluated_TGA.csv
temperature,rate_5,rate_3,rate_10,rate_3_diff,rate_5_diff,rate_10_diff,rate_3_diff_reaction_0,rate_3_diff_reaction_1,rate_3_diff_cumulative,rate_3_diff_diff,rate_5_diff_reaction_0,rate_5_diff_reaction_1,rate_5_diff_cumulative,rate_10_diff_reaction_0,rate_10_diff_reaction_1,rate_10_diff_cumulative,rate_10_diff_diff
31.23291,100.48,99.4638,99.6231,0.0,0.0,0.0,0.0,6.84767e-09,6.84767e-09,-0.0,0.0,6.74252e-11,6.74252e-11,0.0,5.45708e-12,5.45708e-12,-0.0
33.14274,100.497,99.46862,99.64153,0.0,0.0,0.0,0.0,7.29543e-09,7.29543e-09,-0.0,0.0,7.32742e-11,7.32742e-11,0.0,6.00173e-12,6.00173e-12,-0.0
35.05257,100.501,99.46966,99.66333,0.0,0.0,0.0,0.0,7.77418e-09,7.77418e-09,-0.0,0.0,7.96495e-11,7.96495e-11,0.0,6.60209e-12,6.60209e-12,-0.0
36.9624,100.4963,99.47695,99.66962,0.0,0.0,0.0,0.0,8.28617e-09,8.28617e-09,-0.0,0.0,8.66005e-11,8.66005e-11,0.0,7.26403e-12,7.26403e-12,-0.0
38.87223,100.521,99.48353,99.68218,0.0,0.0,0.0,0.0,8.83386e-09,8.83386e-09,-0.0,0.0,9.41809e-11,9.41809e-11,0.0,7.99401e-12,7.99401e-12,-0.0
40.78206,100.495,99.4777,99.68779,0.0,0.0,0.0,0.0,9.41987e-09,9.41987e-09,-0.0,0.0,1.0245e-10,1.0245e-10,0.0,8.79918e-12,8.79918e-12,-0.0
42.69189,100.497,99.47879,99.68806,0.0,0.0,0.0,0.0,1.0047e-08,1.0047e-08,-0.0,0.0,1.11472e-10,1.11472e-10,0.0,9.68751e-12,9.68751e-12,-0.0
44.60172,100.493,99.48014,99.68903,0.0,0.0,0.0,0.0,1.07184e-08,1.07184e-08,-0.0,0.0,1.21319e-10,1.21319e-10,0.0,1.06678e-11,1.06678e-11,-0.0
46.51155,100.505,99.48288,99.69812,0.0,0.0,0.0,0.0,1.14372e-08,1.14372e-08,-0.0,0.0,1.32069e-10,1.32069e-10,0.0,1.17497e-11,1.17497e-11,-0.0
48.42138,100.513,99.48926,99.69786,0.0,0.0,0.0,0.0,1.22071e-08,1.22071e-08,-0.0,0.0,1.43807e-10,1.43807e-10,0.0,1.29442e-11,1.29442e-11,-0.0
50.33121,100.509,99.48889,99.70773,0.0,0.0,0.0,0.0,1.30319e-08,1.30319e-08,-0.0,0.0,1.56627e-10,1.56627e-10,0.0,1.42631e-11,1.42631e-11,-0.0
52.24104,100.51,99.48243,99.69943,0.0,0.0,0.0,0.0,1.39157e-08,1.39157e-08,-0.0,0.0,1.70635e-10,1.70635e-10,0.0,1.57199e-11,1.57199e-11,-0.0
54.15087,100.5,99.48243,99.69756,0.0,0.0,0.0,0.0,1.4863e-08,1.4863e-08,-0.0,0.0,1.85942e-10,1.85942e-10,0.0,1.73292e-11,1.73292e-11,-0.0
56.0607,100.521,99.49524,99.69343,0.0,0.0,0.0,0.0,1.58785e-08,1.58785e-08,-0.0,0.0,2.02675e-10,2.02675e-10,0.0,1.91073e-11,1.91073e-11,-0.0
57.97053,100.511,99.48608,99.70614,0.0,0.0,0.0,0.0,1.69676e-08,1.69676e-08,-0.0,0.0,2.2097e-10,2.2097e-10,0.0,2.10726e-11,2.10726e-11,-0.0
59.88036,100.511,99.50573,99.69183,0.0,0.0,0.0,0.0,1.81357e-08,1.81357e-08,-0.0,0.0,2.4098e-10,2.4098e-10,0.0,2.32451e-11,2.32451e-11,-0.0
61.79019,100.512,99.51169,99.7027,0.0,0.0,0.0,0.0,1.93891e-08,1.93891e-08,-0.0,0.0,2.62871e-10,2.62871e-10,0.0,2.56473e-11,2.56473e-11,-0.0
63.70002,100.508,99.51761,99.70519,0.0,0.0,0.0,0.0,2.07342e-08,2.07342e-08,-0.0,0.0,2.86826e-10,2.86826e-10,0.0,2.83039e-11,2.83039e-11,-0.0
65.60985,100.5095,99.51352,99.71066,0.0,0.0,0.0,0.0,2.21782e-08,2.21782e-08,-0.0,0.0,3.13048e-10,3.13048e-10,0.0,3.12427e-11,3.12427e-11,-0.0
67.51968,100.51,99.51303,99.71397,0.0,0.0,0.0,0.0,2.37287e-08,2.37287e-08,-0.0,0.0,3.41758e-10,3.41758e-10,0.0,3.44944e-11,3.44944e-11,-0.0
69.42951,100.51,99.50573,99.70066,0.0,0.0,0.0,0.0,2.5394e-08,2.5394e-08,-0.0,0.0,3.73201e-10,3.73201e-10,0.0,3.8093e-11,3.8093e-11,-0.0
71.33934,100.5086,99.51081,99.69517,0.0,0.0,0.0,0.0,2.71833e-08,2.71833e-08,-0.0,0.0,4.07649e-10,4.07649e-10,0.0,4.20766e-11,4.20766e-11,-0.0
73.24917,100.502,99.52174,99.6939,0.0,0.0,0.0,0.0,2.91061e-08,2.91061e-08,-0.0,0.0,4.45397e-10,4.45397e-10,0.0,4.64874e-11,4.64874e-11,-0.0
75.159,100.511,99.51839,99.70145,0.0,0.0,0.0,0.0,3.1173e-08,3.1173e-08,-0.0,0.0,4.86775e-10,4.86775e-10,0.0,5.13722e-11,5.13722e-11,-0.0
77.06883,100.507,99.51943,99.71946,0.0,0.0,0.0,0.0,3.33955e-08,3.33955e-08,-0.0,0.0,5.32145e-10,5.32145e-10,0.0,5.67833e-11,5.67833e-11,-0.0
78.97866,100.503,99.52537,99.71946,0.0,0.0,0.0,0.0,3.57859e-08,3.57859e-08,-0.0,0.0,5.81905e-10,5.81905e-10,0.0,6.27787e-11,6.27787e-11,-0.0
80.88849,100.5,99.53634,99.70799,0.0,0.0,0.0,0.0,3.83577e-08,3.83577e-08,-0.0,0.0,6.36497e-10,6.36497e-10,0.0,6.94233e-11,6.94233e-11,-0.0
82.79832,100.503,99.51935,99.70477,0.0,0.0,0.0,0.0,4.11255e-08,4.11255e-08,-0.0,0.0,6.96407e-10,6.96407e-10,0.0,7.6789e-11,7.6789e-11,-0.0
84.70815,100.5042,99.52401,99.71234,0.0,0.0,0.0,0.0,4.41049e-08,4.41049e-08,-0.0,0.0,7.62174e-10,7.62174e-10,0.0,8.49559e-11,8.49559e-11,-0.0
86.61798,100.505,99.50984,99.71191,0.0,0.0,0.0,0.0,4.73132e-08,4.73132e-08,-0.0,0.0,8.3439e-10,8.3439e-10,0.0,9.40135e-11,9.40135e-11,-0.0
88.52781,100.501,99.51989,99.71862,0.0,0.0,0.0,0.0,5.0769e-08,5.0769e-08,-0.0,0.0,9.13713e-10,9.13713e-10,0.0,1.04061e-10,1.04061e-10,-0.0
90.43764,100.51,99.52583,99.72162,0.0,0.0,0.0,0.0,5.44924e-08,5.44924e-08,-0.0,0.0,1.00087e-09,1.00087e-09,0.0,1.1521e-10,1.1521e-10,-0.0
92.34747,100.509,99.53222,99.72662,0.0,0.0,0.0,0.0,5.85053e-08,5.85053e-08,-0.0,0.0,1.09666e-09,1.09666e-09,0.0,1.27584e-10,1.27584e-10,-0.0
94.2573,100.513,99.53496,99.72825,0.0,0.0,0.0,0.0,6.28317e-08,6.28317e-08,-0.0,0.0,1.20197e-09,1.20197e-09,0.0,1.4132e-10,1.4132e-10,-0.0
96.16713,100.512,99.53405,99.72883,0.0,0.0,0.0,0.0,6.74974e-08,6.74974e-08,-0.0,0.0,1.31778e-09,1.31778e-09,0.0,1.56573e-10,1.56573e-10,-0.0
98.07696,100.518,99.52309,99.71778,0.0,0.0,0.0,0.0,7.25305e-08,7.25305e-08,-0.0,0.0,1.44519e-09,1.44519e-09,0.0,1.73513e-10,1.73513e-10,-0.0
99.98679,100.523,99.52902,99.71651,0.0,0.0,0.0,0.0,7.79618e-08,7.79618e-08,-0.0,0.0,1.58539e-09,1.58539e-09,0.0,1.92334e-10,1.92334e-10,-0.0
101.897,100.518,99.54275,99.7136,0.0,0.0,0.0,0.0,8.38245e-08,8.38245e-08,-0.0,0.0,1.73972e-09,1.73972e-09,0.0,2.13247e-10,2.13247e-10,-0.0
103.806,100.52,99.53633,99.72072,0.0,0.0,0.0,0.0,9.01549e-08,9.01549e-08,-0.0,0.0,1.90965e-09,1.90965e-09,0.0,2.36492e-10,2.36492e-10,-0.0
105.716,100.536,99.5409,99.72362,0.0,0.0,0.0,0.0,9.69925e-08,9.69925e-08,-0.0,0.0,2.09683e-09,2.09683e-09,0.0,2.62335e-10,2.62335e-10,-0.0
107.626,100.536,99.52628,99.71995,0.0,0.0,0.0,0.0,1.0438e-07,1.0438e-07,-0.0,0.0,2.30307e-09,2.30307e-09,0.0,2.91074e-10,2.91074e-10,-0.0
109.536,100.519,99.53085,99.7161,0.0,0.0,0.0,0.0,1.12365e-07,1.12365e-07,-0.0,0.0,2.53039e-09,2.53039e-09,0.0,3.23042e-10,3.23042e-10,-0.0
111.446,100.512,99.53862,99.72407,0.0,0.0,0.0,0.0,1.20999e-07,1.20999e-07,-0.0,0.0,2.78102e-09,2.78102e-09,0.0,3.58609e-10,3.58609e-10,-0.0
113.3556,100.512,99.53405,99.72332,0.0,0.0,0.0,0.0,1.30336e-07,1.30336e-07,-0.0,0.0,3.05743e-09,3.05743e-09,0.0,3.98192e-10,3.98192e-10,-0.0
115.265,100.506,99.53679,99.72109,0.0,0.0,0.0,0.0,1.40438e-07,1.40438e-07,-0.0,0.0,3.3624e-09,3.3624e-09,0.0,4.42254e-10,4.42254e-10,-0.0
117.175,100.5086,99.5441,99.7245,0.0,0.0,0.0,0.0,1.51371e-07,1.51371e-07,-0.0,0.0,3.69897e-09,3.69897e-09,0.0,4.91316e-10,4.91316e-10,-0.0
119.085,100.496,99.53816,99.72239,0.0,0.0,0.0,0.0,1.63207e-07,1.63207e-07,-0.0,0.0,4.07055e-09,4.07055e-09,0.0,5.45959e-10,5.45959e-10,-0.0
120.995,100.496,99.53679,99.72615,0.0,0.0,0.0,0.0,1.76026e-07,1.76026e-07,-0.0,0.0,4.48091e-09,4.48091e-09,0.0,6.06834e-10,6.06834e-10,-0.0
122.905,100.4968,99.52628,99.72993,0.0,0.0,0.0,0.0,1.89914e-07,1.89914e-07,-0.0,0.0,4.93427e-09,4.93427e-09,0.0,6.74669e-10,6.74669e-10,-0.0
124.815,100.495,99.50984,99.73244,0.0,0.0,0.0,0.0,2.04966e-07,2.04966e-07,-0.0,0.0,5.43529e-09,5.43529e-09,0.0,7.50278e-10,7.50278e-10,-0.0
126.724,100.491,99.50635,99.73286,0.0,0.0,0.0,0.0,2.21284e-07,2.21284e-07,-0.0,0.0,5.98918e-09,5.98918e-09,0.0,8.34576e-10,8.34576e-10,-0.0
128.634,100.488,99.51349,99.73499,0.0,0.0,0.0,0.0,2.38982e-07,2.38982e-07,-0.0,0.0,6.60173e-09,6.60173e-09,0.0,9.28586e-10,9.28586e-10,-0.0
130.544,100.488,99.51486,99.72995,0.0,0.0,0.0,0.0,2.58183e-07,2.58183e-07,-0.0,0.0,7.27939e-09,7.27939e-09,0.0,1.03345e-09,1.03345e-09,-0.0
132.4539,100.486,99.52522,99.72825,0.0,0.0,0.0,0.0,2.79023e-07,2.79023e-07,-0.0,0.0,8.02935e-09,8.02935e-09,0.0,1.15047e-09,1.15047e-09,-0.0
134.364,100.479,99.50668,99.72846,0.0,0.0,0.0,0.0,3.01649e-07,3.01649e-07,-0.0,0.0,8.85962e-09,8.85962e-09,0.0,1.28106e-09,1.28106e-09,-0.0
136.274,100.474,99.49842,99.72296,0.0,0.0,0.0,0.0,3.26225e-07,3.26225e-07,-0.0,0.0,9.77912e-09,9.77912e-09,0.0,1.42686e-09,1.42686e-09,-0.0
138.183,100.478,99.51348,99.72407,0.0,0.0,0.0,0.0,3.52927e-07,3.52927e-07,-0.0,0.0,1.07978e-08,1.07978e-08,0.0,1.58967e-09,1.58967e-09,-0.0
140.093,100.4693,99.50755,99.73118,0.0,0.0,0.0,0.0,3.81952e-07,3.81952e-07,-0.0,0.0,1.19268e-08,1.19268e-08,0.0,1.77152e-09,1.77152e-09,-0.0
142.003,100.462,99.5071,99.73662,0.0,0.0,0.0,0.0,4.13513e-07,4.13513e-07,-0.0,0.0,1.31785e-08,1.31785e-08,0.0,1.97471e-09,1.97471e-09,-0.0
143.913,100.462,99.49659,99.73872,0.0,0.0,0.0,0.0,4.47845e-07,4.47845e-07,-0.0,0.0,1.45668e-08,1.45668e-08,0.0,2.20179e-09,2.20179e-09,-0.0
145.823,100.462,99.49946,99.73746,0.0,0.0,0.0,0.0,4.85207e-07,4.85207e-07,-0.0,0.0,1.61071e-08,1.61071e-08,0.0,2.45565e-09,2.45565e-09,-0.0
147.733,100.462,99.49328,99.73035,0.0,0.0,0.0,0.0,5.25881e-07,5.25881e-07,-0.0,0.0,1.78167e-08,1.78167e-08,0.0,2.73951e-09,2.73951e-09,-0.0
149.642,100.461,99.50299,99.72783,0.0,0.0,0.0,0.0,5.7018e-07,5.7018e-07,-0.0,0.0,1.97149e-08,1.97149e-08,0.0,3.05702e-09,3.05702e-09,-0.0
151.5522,100.447,99.49428,99.727,0.0,0.0,0.0,0.0,6.18445e-07,6.18445e-07,-0.0,0.0,2.18234e-08,2.18234e-08,0.0,3.41225e-09,3.41225e-09,-0.0
153.462,100.447,99.49255,99.73663,0.0,0.0,0.0,0.0,6.71054e-07,6.71054e-07,-0.0,0.0,2.41664e-08,2.41664e-08,0.0,3.80981e-09,3.80981e-09,-0.0
155.372,100.4448,99.47969,99.73453,0.0,0.0,0.0,0.0,7.2842e-07,7.2842e-07,-0.0,0.0,2.67709e-08,2.67709e-08,0.0,4.25485e-09,4.25485e-09,-0.0
157.282,100.442,99.46553,99.73244,0.0,0.0,0.0,0.0,7.91001e-07,7.91001e-07,-0.0,0.0,2.96672e-08,2.96672e-08,0.0,4.75319e-09,4.75319e-09,-0.0
159.192,100.439,99.47101,99.73035,0.0,0.0,0.0,0.0,8.59299e-07,8.59299e-07,-0.0,0.0,3.28894e-08,3.28894e-08,0.0,5.31137e-09,5.31137e-09,-0.0
161.101,100.433,99.46915,99.72825,0.0,0.0,0.0,0.0,9.33868e-07,9.33868e-07,-0.0,0.0,3.64754e-08,3.64754e-08,0.0,5.93676e-09,5.93676e-09,-0.0
163.011,100.419,99.4473,99.72825,0.0,0.0,0.0,0.0,1.01532e-06,1.01532e-06,-0.0,0.0,4.0468e-08,4.0468e-08,0.0,6.63762e-09,6.63762e-09,-0.0
164.921,100.416,99.43046,99.72825,0.0,0.0,0.0,0.0,1.10433e-06,1.10433e-06,-0.0,0.0,4.49151e-08,4.49151e-08,0.0,7.42331e-09,7.42331e-09,-0.0
166.831,100.401,99.41025,99.72825,0.0,0.0,0.0,0.0,1.20163e-06,1.20163e-06,-0.0,0.0,4.98703e-08,4.98703e-08,0.0,8.30434e-09,8.30434e-09,-0.0
168.741,100.391,99.40031,99.72825,0.0,0.0,0.0,0.0,1.30806e-06,1.30806e-06,-0.0,0.0,5.5394e-08,5.5394e-08,0.0,9.29256e-09,9.29256e-09,-0.0
170.6505,100.385,99.40066,99.72742,0.0,0.0,0.0,0.0,1.42452e-06,1.42452e-06,-0.0,0.0,6.15539e-08,6.15539e-08,0.0,1.04013e-08,1.04013e-08,-0.0
172.56,100.372,99.38067,99.72616,0.0,0.0,0.0,0.0,1.55201e-06,1.55201e-06,-0.0,0.0,6.84262e-08,6.84262e-08,0.0,1.16457e-08,1.16457e-08,-0.0
174.47,100.3513,99.35704,99.72532,0.0,0.0,0.0,0.0,1.69164e-06,1.69164e-06,-0.0,0.0,7.60965e-08,7.60965e-08,0.0,1.30427e-08,1.30427e-08,-0.0
176.38,100.345,99.33657,99.71355,0.0,0.0,0.0,0.0,1.84464e-06,1.84464e-06,-0.0,0.0,8.46609e-08,8.46609e-08,0.0,1.46114e-08,1.46114e-08,-0.0
178.29,100.335,99.30244,99.70313,0.0,0.0,0.0,0.0,2.01237e-06,2.01237e-06,-0.0,0.0,9.42278e-08,9.42278e-08,0.0,1.63736e-08,1.63736e-08,-0.0
180.2,100.3263,99.27412,99.70399,0.0,0.0,0.0,0.0,2.19633e-06,2.19633e-06,-0.0,0.0,1.04919e-07,1.04919e-07,0.0,1.83535e-08,1.83535e-08,-0.0
182.109,100.306,99.23537,99.7069,0.0,0.0,0.0,0.0,2.39819e-06,2.39819e-06,-0.0,0.0,1.16872e-07,1.16872e-07,0.0,2.05789e-08,2.05789e-08,-0.0
184.019,100.288,99.21015,99.69388,0.0,0.0,0.0,0.0,2.6198e-06,2.6198e-06,-0.0,0.0,1.30241e-07,1.30241e-07,0.0,2.30808e-08,2.30808e-08,-0.0
185.929,100.271,99.17912,99.68891,0.0,0.0,0.0,0.0,2.86321e-06,2.86321e-06,-0.0,0.0,1.45201e-07,1.45201e-07,0.0,2.58944e-08,2.58944e-08,-0.0
187.839,100.256,99.14296,99.68385,0.0,0.0,0.0,0.0,3.1307e-06,3.1307e-06,-0.0,0.0,1.61948e-07,1.61948e-07,0.0,2.90595e-08,2.90595e-08,-0.0
189.7488,100.225,99.09674,99.67466,0.0,0.0,0.0,0.0,3.4248e-06,3.4248e-06,-0.0,0.0,1.80704e-07,1.80704e-07,0.0,3.26211e-08,3.26211e-08,-0.0
191.659,100.2,99.05569,99.66266,0.0,0.0,0.0,0.0,3.74833e-06,3.74833e-06,-0.0,0.0,2.0172e-07,2.0172e-07,0.0,3.663e-08,3.663e-08,-0.0
193.568,100.157,99.00489,99.64727,0.0,0.0,0.0,0.0,4.1044e-06,4.1044e-06,-0.0,0.0,2.25278e-07,2.25278e-07,0.0,4.11438e-08,4.11438e-08,-0.0
195.478,100.1364,98.96296,99.63227,0.0,0.0,0.0,0.0,4.4965e-06,4.4965e-06,-0.0,0.0,2.51697e-07,2.51697e-07,0.0,4.62274e-08,4.62274e-08,-0.0
197.388,100.1003,98.88873,99.62483,0.0,0.0,0.0,0.0,4.92851e-06,4.92851e-06,-0.0,0.0,2.8134e-07,2.8134e-07,0.0,5.19547e-08,5.19547e-08,-0.0
199.298,100.07,98.82377,99.6106,0.0,0.0,0.0,0.0,5.40472e-06,5.40472e-06,-0.0,0.0,3.14614e-07,3.14614e-07,0.0,5.8409e-08,5.8409e-08,-0.0
201.208,100.026,98.75421,99.59109,0.0,0.0,0.0,0.0,5.92996e-06,5.92996e-06,-0.0,0.0,3.51981e-07,3.51981e-07,0.0,6.56848e-08,6.56848e-08,-0.0
203.118,99.97859,98.67028,99.5692,0.0,0.0,0.0,0.0,6.50959e-06,6.50959e-06,-0.0,0.0,3.93965e-07,3.93965e-07,0.0,7.38892e-08,7.38892e-08,-0.0
205.027,99.9299,98.58647,99.5549,0.0,0.0,0.0,0.0,7.14959e-06,7.14959e-06,-0.0,0.0,4.41158e-07,4.41158e-07,0.0,8.31433e-08,8.31433e-08,-0.0
206.937,99.88424,98.49598,99.53554,0.0,0.0,0.0,0.0,7.85663e-06,7.85663e-06,-0.0,0.0,4.94232e-07,4.94232e-07,0.0,9.35847e-08,9.35847e-08,-0.0
208.8471,99.82877,98.39049,99.51034,0.0,0.0,0.0,0.0,8.6382e-06,8.6382e-06,-0.0,0.0,5.53947e-07,5.53947e-07,0.0,1.05369e-07,1.05369e-07,-0.0
210.757,99.76761,98.26963,99.48788,0.0,0.0,0.0,0.0,9.50264e-06,9.50264e-06,-0.0,0.0,6.21168e-07,6.21168e-07,0.0,1.18674e-07,1.18674e-07,-0.0
212.667,99.69944,98.14435,99.4622,0.0,0.0,0.0,0.0,1.04593e-05,1.04593e-05,-0.0,0.0,6.96874e-07,6.96874e-07,0.0,1.33699e-07,1.33699e-07,-0.0
214.577,99.62459,98.02667,99.43169,0.0,0.0,0.0,0.0,1.15186e-05,1.15186e-05,-0.0,0.0,7.82178e-07,7.82178e-07,0.0,1.50672e-07,1.50672e-07,-0.0
216.486,99.54506,97.88069,99.40501,0.0,0.0,0.0,0.0,1.26923e-05,1.26923e-05,-0.0,0.0,8.78343e-07,8.78343e-07,0.0,1.69852e-07,1.69852e-07,-0.0
218.396,99.46629,97.72702,99.36774,0.0,0.0,0.0,0.0,1.39935e-05,1.39935e-05,-0.0,0.0,9.86807e-07,9.86807e-07,0.0,1.91532e-07,1.91532e-07,-0.0
220.306,99.37386,97.54188,99.33066,0.0,0.0,0.0,0.0,1.54369e-05,1.54369e-05,-0.0,0.0,1.1092e-06,1.1092e-06,0.0,2.16046e-07,2.16046e-07,-0.0
222.216,99.27461,97.35324,99.28228,0.0,0.0,0.0,0.0,1.70391e-05,1.70391e-05,-0.0,0.0,1.24739e-06,1.24739e-06,0.0,2.43772e-07,2.43772e-07,-0.0
224.126,99.15682,97.14988,99.23402,0.0,0.0,0.0,0.0,1.88186e-05,1.88186e-05,-0.0,0.0,1.40348e-06,1.40348e-06,0.0,2.75141e-07,2.75141e-07,-0.0
226.036,99.03779,96.9074,99.18104,0.0,0.0,0.0,0.0,2.07963e-05,2.07963e-05,-0.0,0.0,1.57989e-06,1.57989e-06,0.0,3.10643e-07,3.10643e-07,-0.0
227.9454,98.90905,96.70436,99.13042,0.0,0.0,0.0,0.0,2.29957e-05,2.29957e-05,-0.0,0.0,1.77937e-06,1.77937e-06,0.0,3.50833e-07,3.50833e-07,-0.0
229.855,98.77218,96.45885,99.06977,0.0,0.0,0.0,0.0,2.54432e-05,2.54432e-05,-0.0,0.0,2.00504e-06,2.00504e-06,0.0,3.96345e-07,3.96345e-07,-0.0
231.765,98.60486,96.16864,99.00769,0.0,0.0,0.0,0.0,2.81686e-05,2.81686e-05,-0.0,0.0,2.26047e-06,2.26047e-06,0.0,4.479e-07,4.479e-07,-0.0
233.675,98.45575,95.88332,98.93039,0.0,0.0,0.0,0.0,3.12054e-05,3.12054e-05,-0.0,0.0,2.54975e-06,2.54975e-06,0.0,5.06318e-07,5.06318e-07,-0.0
235.585,98.28793,95.57873,98.84946,0.0,0.0,0.0,0.0,3.45915e-05,3.45915e-05,-0.0,0.0,2.87753e-06,2.87753e-06,0.0,5.72532e-07,5.72532e-07,-0.0
237.495,98.08414,95.22173,98.75559,0.0,0.0,0.0,0.0,3.83696e-05,3.83696e-05,-0.0,0.0,3.24912e-06,3.24912e-06,0.0,6.47606e-07,6.47606e-07,-0.0
239.404,97.86735,94.84879,98.66464,0.0,0.0,0.0,0.0,4.25879e-05,4.25879e-05,-0.0,0.0,3.67062e-06,3.67062e-06,0.0,7.32751e-07,7.32751e-07,-0.0
241.314,97.64926,94.45719,98.55718,0.0,0.0,0.0,0.0,4.73011e-05,4.73011e-05,-0.0,0.0,4.14897e-06,4.14897e-06,0.0,8.29348e-07,8.29348e-07,-0.0
243.224,97.40427,94.02453,98.44278,0.0,0.0,0.0,0.0,5.25708e-05,5.25708e-05,-0.0,0.0,4.69215e-06,4.69215e-06,0.0,9.38969e-07,9.38969e-07,-0.0
245.134,97.13828,93.56928,98.30882,0.0,0.0,0.0,0.0,5.8467e-05,5.8467e-05,-0.0,0.0,5.30925e-06,5.30925e-06,0.0,1.06341e-06,1.06341e-06,-0.0
247.0437,96.86399,93.06861,98.18155,0.0,0.0,0.0,0.0,6.50688e-05,6.50688e-05,-0.0,0.0,6.01074e-06,6.01074e-06,0.0,1.20471e-06,1.20471e-06,-0.0
248.954,96.56531,92.55018,98.06027,0.0,0.0,0.0,0.0,7.24662e-05,7.24662e-05,-0.0,0.0,6.80858e-06,6.80858e-06,0.0,1.36521e-06,1.36521e-06,-0.0
250.863,96.24748,91.96754,97.90818,0.0,0.0,0.0,0.0,8.0761e-05,8.0761e-05,-0.0,0.0,7.7165e-06,7.7165e-06,0.0,1.54758e-06,1.54758e-06,-0.0
252.773,95.92095,91.36449,97.74969,0.0,0.0,0.0,0.0,9.00691e-05,9.00691e-05,-0.0,0.0,8.75026e-06,8.75026e-06,0.0,1.75484e-06,1.75484e-06,-0.0
254.683,95.56277,90.72334,97.58442,0.0,0.0,0.0,0.0,0.000100522,0.000100522,-0.0,0.0,9.92795e-06,9.92795e-06,0.0,1.99047e-06,1.99047e-06,-0.0
256.593,95.16733,89.98949,97.39913,0.0,0.0,0.0,0.0,0.00011227,0.00011227,-0.0,0.0,1.12704e-05,1.12704e-05,0.0,2.25843e-06,2.25843e-06,-0.0
258.503,94.74771,89.27783,97.21606,0.0,0.0,0.0,0.0,0.000125482,0.000125482,-0.0,0.0,1.28014e-05,1.28014e-05,0.0,2.56325e-06,2.56325e-06,-0.0
260.413,94.28847,88.48251,96.9499,0.0,0.0,0.0,0.0,0.000140354,0.000140354,-0.0,0.0,1.45485e-05,1.45485e-05,0.0,2.91009e-06,2.91009e-06,-0.0
262.322,93.78135,87.61111,96.75924,0.0,0.0,0.0,0.0,0.000157107,0.000157107,-0.0,0.0,1.65433e-05,1.65433e-05,0.0,3.30487e-06,3.30487e-06,-0.0
264.232,93.25518,86.6803,96.48683,0.0,0.0,0.0,0.0,0.000175994,0.000175994,-0.0,0.0,1.88222e-05,1.88222e-05,0.0,3.75434e-06,3.75434e-06,-0.0
266.142,92.70964,85.7137,96.23387,0.0,0.0,0.0,0.0,0.000197303,0.000197303,-0.0,0.0,2.14272e-05,2.14272e-05,0.0,4.26623e-06,4.26623e-06,-0.0
268.052,92.13673,84.69048,95.95109,0.0,0.0,0.0,0.0,0.000221366,0.000221366,-0.0,0.0,2.44065e-05,2.44065e-05,0.0,4.84935e-06,4.84935e-06,-0.0
269.962,91.49499,83.54868,95.64494,0.0,0.0,0.0,0.0,0.000248559,0.000248559,-0.0,0.0,2.78159e-05,2.78159e-05,0.0,5.51383e-06,5.51383e-06,-0.0
271.871,90.83495,82.37462,95.31158,0.0,0.0,0.0,0.0,0.000279316,0.000279316,-0.0,0.0,3.17197e-05,3.17197e-05,0.0,6.2712e-06,6.2712e-06,-0.0
273.781,90.13767,81.12605,94.95677,0.0,0.0,0.0,0.0,0.000314132,0.000314132,-0.0,0.0,3.61921e-05,3.61921e-05,0.0,7.13471e-06,7.13471e-06,-0.0
275.691,89.39725,79.82123,94.60984,0.0,0.0,0.0,0.0,0.000353576,0.000353576,-0.0,0.0,4.13188e-05,4.13188e-05,0.0,8.11948e-06,8.11948e-06,-0.0
277.601,88.57641,78.401,94.20441,0.0,0.0,0.0,0.0,0.000398303,0.000398303,-0.0,0.0,4.71989e-05,4.71989e-05,0.0,9.24285e-06,9.24285e-06,-0.0
279.511,87.73168,76.9138,93.76714,0.0,0.0,0.0,0.0,0.000449061,0.000449061,-0.0,0.0,5.39469e-05,5.39469e-05,0.0,1.05247e-05,1.05247e-05,-0.0
281.421,86.81597,75.32968,93.3341,0.0,0.0,0.0,0.0,0.000506715,0.000506715,-0.0,0.0,6.16953e-05,6.16953e-05,0.0,1.19876e-05,1.19876e-05,-0.0
283.33,85.8422,73.62185,92.86816,0.0,0.0,0.0,0.0,0.000572257,0.000572257,-0.0,0.0,7.05972e-05,7.05972e-05,0.0,1.36578e-05,1.36578e-05,-0.0
285.2403,84.83301,71.77826,92.34125,0.0,0.0,0.0,0.0,0.000646831,0.000646831,-0.0,0.0,8.08303e-05,8.08303e-05,0.0,1.5565e-05,1.5565e-05,-0.0
287.15,83.7282,69.8679,91.79598,0.0,0.0,0.0,0.0,0.000731757,0.000731757,-0.0,0.0,9.26001e-05,9.26001e-05,0.0,1.77434e-05,1.77434e-05,-0.0
289.06,82.58543,67.84064,91.21644,0.0,0.0,0.0,0.0,0.000828555,0.000828555,-0.0,0.0,0.000106145,0.000106145,0.0,2.02321e-05,2.02321e-05,-0.0
290.97,81.33636,65.73334,90.59359,0.0,0.0,0.0,0.0,0.000938982,0.000938982,-0.0,0.0,0.00012174,0.00012174,0.0,2.3076e-05,2.3076e-05,-0.0
292.88,80.05076,63.49081,89.93223,0.0,0.0,0.0,0.0,0.00106507,0.00106507,-0.0,0.0,0.000139707,0.000139707,0.0,2.63266e-05,2.63266e-05,-0.0
294.789,78.67713,61.10376,89.21716,0.0,0.0,0.0,0.0,0.00120916,0.00120916,-0.0,0.0,0.000160417,0.000160417,0.0,3.00428e-05,3.00428e-05,-0.0
296.699,77.20094,58.62307,88.47506,0.0,0.0,0.0,0.0,0.00137397,0.00137397,-0.0,0.0,0.000184302,0.000184302,0.0,3.42922e-05,3.42922e-05,-0.0
298.609,75.66877,55.98223,87.70344,0.0,0.0,0.0,0.0,0.00156264,0.00156264,-0.0,0.0,0.000211861,0.000211861,0.0,3.91524e-05,3.91524e-05,-0.0
300.519,74.0299,53.18616,86.86716,0.0,0.0,0.0,0.0,0.00177882,0.00177882,-0.0,0.0,0.000243678,0.000243678,0.0,4.47121e-05,4.47121e-05,-0.0
302.429,72.32263,50.40399,85.96928,0.0,0.0,0.0,0.0,0.00202672,0.00202672,-0.0,0.0,0.000280427,0.000280427,0.0,5.10734e-05,5.10734e-05,-0.0
304.3386,70.51601,47.26933,85.05117,0.0,0.0,0.0,0.0,0.00231124,0.00231124,-0.0,0.0,0.000322894,0.000322894,0.0,5.83531e-05,5.83531e-05,-0.0
306.248,68.58813,44.14667,84.06622,0.0,0.0,0.0,0.0,0.00263806,0.00263806,-0.0,0.0,0.000371993,0.000371993,0.0,6.66852e-05,6.66852e-05,-0.0
308.158,66.56911,40.92822,83.01113,0.0,0.0,0.0,0.0,0.00301376,0.00301376,-0.0,0.0,0.000428784,0.000428784,0.0,7.62233e-05,7.62233e-05,-0.0
310.068,64.45831,37.57973,81.91222,0.0,0.0,0.0,0.0,0.003446,0.003446,-0.0,0.0,0.000494501,0.000494501,0.0,8.71437e-05,8.71437e-05,-0.0
311.978,62.23063,34.15332,80.74003,0.0,0.0,0.0,0.0,0.00394365,0.00394365,-0.0,0.0,0.000570581,0.000570581,0.0,9.96484e-05,9.96484e-05,-0.0
313.888,59.92364,30.63379,79.50309,0.0,0.0,0.0,0.0,0.00451703,0.00451703,-0.0,0.0,0.000658691,0.000658691,0.0,0.000113969,0.000113969,-0.0
315.798,57.51787,27.06147,78.19938,0.0,0.0,0.0,0.0,0.0051781,0.0051781,-0.0,0.0,0.000760773,0.000760773,0.0,0.000130371,0.000130371,-0.0
317.707,54.99456,23.50287,76.83884,0.0,0.0,0.0,0.0,0.00594075,0.00594075,-0.0,0.0,0.000879085,0.000879085,0.0,0.000149159,0.000149159,-0.0
319.617,52.36078,19.97786,75.37068,0.0,0.0,0.0,0.0,0.00682109,0.00682109,-0.0,0.0,0.00101625,0.00101625,0.0,0.000170682,0.000170682,-0.0
321.527,49.66105,16.63637,73.85229,0.0,0.0,0.0,0.0,0.00783777,0.00783777,-0.0,0.0,0.00117532,0.00117532,0.0,0.00019534,0.00019534,-0.0
323.4369,46.79411,13.35642,72.23983,0.0,0.0,0.0,0.0,0.00901239,0.00901239,-0.0,0.0,0.00135983,0.00135983,0.0,0.00022359,0.00022359,-0.0
325.347,43.76446,10.50329,70.59556,0.0,0.0,0.0,0.0,0.0103699,0.0103699,-0.0,0.0,0.00157391,0.00157391,0.0,0.000255956,0.000255956,-0.0
327.257,40.66208,8.28968,68.84063,0.0,0.0,0.0,9.52744e-08,0.0119391,0.0119392,-0.0,0.0,0.00182233,0.00182233,0.0,0.00029304,0.00029304,-0.0
329.166,37.46863,7.85587,67.00937,0.0,0.0,0.0,0.00943378,0.0137531,0.0231869,-0.0220454,0.0,0.00211063,0.00211063,0.0,0.000335529,0.000335529,-0.0
331.076,34.26682,7.77546,65.11932,0.0666184,0.0,0.0,0.0453171,0.0158499,0.061167,-0.0238632,0.0,0.00244524,0.00244524,0.0,0.000384208,0.000384208,-0.0
332.986,30.9666,7.60801,63.12332,0.104899,0.0,0.0,0.0814815,0.0182728,0.0997542,-0.0165814,0.0,0.0028336,0.0028336,0.0,0.000439977,0.000439977,-0.0
334.896,27.70916,7.38008,61.05362,0.133499,0.0,0.0,0.104914,0.021071,0.125985,-0.0106047,0.0,0.00328431,0.00328431,0.0,0.000503863,0.000503863,-0.0
336.806,24.41698,7.11347,58.67605,0.137766,0.0,0.0,0.115828,0.0243,0.140128,0.00484722,0.0,0.0038073,0.0038073,0.0,0.000577041,0.000577041,-0.0
338.716,21.12637,6.86454,56.48976,0.133965,0.0,0.0,0.117769,0.0280221,0.145791,-0.00484174,0.0,0.00441403,0.00441403,0.0,0.000660851,0.000660851,-0.0
340.625,17.87099,6.59795,54.2501,0.139944,0.0,0.0,0.114108,0.0323058,0.146414,-0.0013434,0.0,0.00511768,0.00511768,0.0,0.000756822,0.000756822,-0.0
342.5352,14.76327,6.32646,51.96083,0.14052,0.0,0.0,0.107309,0.037226,0.144535,0.00400554,0.0,0.00593338,0.00593338,0.0,0.000866698,0.000866698,-0.0
344.445,11.90823,6.06958,49.38426,0.140484,0.0,0.0,0.099,0.0428625,0.141862,-0.006314,0.0,0.00687845,0.00687845,0.0,0.000992464,0.000992464,-0.0
346.355,9.7304,5.78967,46.93744,0.148181,0.0,0.0,0.0901938,0.0492982,0.139492,-0.00155725,0.0,0.00797266,0.00797266,0.0,0.00113638,0.00113638,-0.0
348.265,9.13682,5.50408,44.30513,0.135986,0.0,0.0,0.0814912,0.0566155,0.138107,0.00600694,0.000270852,0.0092385,0.00950936,0.0,0.00130102,0.00130102,-0.0
350.175,9.1495,5.2404,41.66966,0.149914,0.00114661,0.0,0.0732271,0.0648908,0.138118,-0.00255521,0.0107746,0.0107014,0.021476,0.0,0.00148929,0.00148929,-0.0
352.084,9.09947,4.9674,38.95548,0.128483,0.0559734,0.0,0.0655705,0.0741864,0.139757,-0.000636061,0.0382071,0.0123901,0.0505972,0.0,0.00170452,0.00170452,-0.0
353.994,8.95093,4.69208,36.18157,0.155265,0.0938617,0.0,0.0585886,0.0845383,0.143127,-0.00279922,0.0692655,0.0143367,0.0836021,0.0,0.00195044,0.00195044,-0.0
355.904,8.73911,4.40655,33.44634,0.1444,0.117822,0.0,0.0522887,0.0959397,0.148228,0.0012776,0.093989,0.0165767,0.110566,0.0,0.0022313,0.0022313,-0.0
357.814,8.52262,4.12568,30.64186,0.164941,0.121759,0.0,0.0466443,0.108318,0.154962,-0.0135547,0.109578,0.0191497,0.128727,0.0,0.00255189,0.00255189,-0.0
359.724,8.27337,3.79537,27.84142,0.170633,0.131624,0.0,0.0416108,0.121503,0.163114,-0.0026073,0.116894,0.0220982,0.138993,0.0,0.00291761,0.00291761,-0.0
361.6335,8.02113,3.45555,24.95994,0.184451,0.140871,0.0,0.0371358,0.135192,0.172327,-0.00429889,0.117931,0.0254685,0.143399,0.0,0.00333454,0.00333454,-0.0
363.543,7.73137,3.10005,22.07181,0.184362,0.13918,0.0,0.0331647,0.148895,0.18206,0.00337222,0.114675,0.029309,0.143984,0.0,0.00380949,0.00380949,-0.0
365.453,7.48592,2.75685,19.25607,0.194111,0.141824,0.0,0.0296446,0.161892,0.191536,-0.00897887,0.108741,0.0336701,0.142411,0.0,0.0043501,0.0043501,-0.0
367.363,7.19556,2.3809,16.50853,0.19707,0.138745,0.0,0.0265254,0.173173,0.199698,-0.00366832,0.101317,0.0386019,0.139919,0.0,0.0049649,0.0049649,-0.0
369.273,6.93702,1.99157,14.03402,0.198646,0.142678,0.0,0.0237613,0.181412,0.205174,0.00552166,0.0932274,0.0441526,0.13738,0.0,0.0056634,0.0056634,-0.0
371.183,6.66604,1.62238,11.77803,0.195206,0.137138,0.0,0.021311,0.184983,0.206294,-0.000531878,0.085017,0.0503652,0.135382,0.0,0.00645615,0.00645615,-0.0
373.092,6.42554,1.25125,10.00586,0.19163,0.13463,0.0,0.0191374,0.182066,0.201204,0.00446065,0.0770299,0.0572731,0.134303,0.0,0.0073548,0.0073548,-0.0
375.002,6.15029,0.89639,8.95686,0.166989,0.135892,0.0,0.0172077,0.170937,0.188144,0.00486367,0.0694699,0.0648952,0.134365,0.0,0.0083722,0.0083722,-0.0
376.912,5.89126,0.55927,8.88475,0.184765,0.132829,0.0,0.0154928,0.150488,0.165981,0.010739,0.0624457,0.0732288,0.135674,4.30875e-07,0.00952246,0.00952289,0.000915698
378.822,5.63066,0.26132,8.88809,0.140798,0.140934,-0.000204223,0.0139671,0.121059,0.135026,0.00678502,0.0560035,0.0822412,0.138245,0.00270319,0.0108209,0.0135241,-0.0045429
380.7318,5.35396,-0.01188198,8.87486,0.126582,0.137201,0.0200017,0.0126082,0.0854061,0.0980143,0.0264141,0.0501495,0.0918594,0.142009,0.015978,0.0122842,0.0282623,-0.0171544
382.642,5.06069,-0.18874,8.79906,0.0518635,0.16512,0.0540886,0.0113963,0.0492973,0.0606937,0.0386155,0.0448655,0.101959,0.146824,0.0342901,0.0139304,0.0482205,-0.0134998
384.551,4.76901,-0.22475,8.67402,0.00764991,0.154799,0.0813422,0.0103142,0.0204738,0.030788,0.00886921,0.0401188,0.11235,0.152469,0.0507052,0.0157785,0.0664837,-0.01007
386.461,4.45725,-0.22841,8.51225,-0.00479098,0.175283,0.0787191,0.00934681,0.00466539,0.0140122,0.00330916,0.0358696,0.122767,0.158637,0.0625753,0.0178488,0.0804241,-0.00125293
388.371,4.13487,-0.22,8.34591,0.0112208,0.168434,0.0907097,0.00848076,0.000286868,0.00876763,-0.00660461,0.0320749,0.132853,0.164928,0.0697784,0.0201626,0.089941,-1.37082e-05
390.281,3.81722,-0.23568,8.17952,0.00409448,0.169141,0.0897305,0.00770448,2.60722e-07,0.00770474,-0.000219331,0.0286918,0.142154,0.170846,0.0731252,0.0227417,0.0958669,-0.000405763
392.191,3.50101,-0.25216,8.01165,0.00358668,0.163988,0.0905578,0.00700774,0.0,0.00700774,0.00139275,0.0256789,0.150121,0.1758,0.0736006,0.0256084,0.099209,-0.00490205
394.101,3.161,-0.26356,7.8259,0.00430406,0.173848,0.101904,0.00638159,0.0,0.00638159,0.00199317,0.0229973,0.156113,0.179111,0.0720795,0.0287849,0.100864,0.00186157
396.01,2.84316,-0.26769,7.64694,-0.000958175,0.176403,0.0943905,0.00581817,0.0,0.00581817,0.00301032,0.0206113,0.159436,0.180047,0.0692534,0.0322924,0.101546,-0.00399183
397.92,2.50062,-0.26084,7.45342,0.00239282,0.169889,0.100098,0.00531056,0.0,0.00531056,-0.00550522,0.0184881,0.159386,0.177874,0.0656363,0.0361509,0.101787,-0.00180948
399.8301,2.18703,-0.27407,7.2533,0.00406844,0.164947,0.101381,0.00485264,0.0,0.00485264,0.00236878,0.0165984,0.155336,0.171934,0.0615959,0.0403776,0.101974,0.0041481
401.74,1.86608,-0.27866,7.06831,0.00286936,0.161596,0.0989826,0.00443906,0.0,0.00443906,-0.000619611,0.0149158,0.146848,0.161764,0.0573872,0.0449865,0.102374,-0.00316934
403.65,1.56961,-0.28551,6.87176,0.00311023,0.144374,0.104606,0.00406506,0.0,0.00406506,0.00125293,0.0134167,0.13381,0.147226,0.0531822,0.0499861,0.103168,0.000542845
405.56,1.30841,-0.28779,6.67719,-0.00573868,0.134394,0.103826,0.00372647,0.0,0.00372647,0.00387942,0.0120803,0.116578,0.128658,0.049093,0.0553787,0.104472,-0.0047732
407.469,1.07041,-0.27592,6.46521,-0.00119906,0.119518,0.108057,0.00341957,0.0,0.00341957,-0.00538184,0.0108879,0.0960935,0.106981,0.0451892,0.0611579,0.106347,-0.00234136
409.379,0.85676,-0.28368,6.24469,0.00548744,0.098679,0.121006,0.00314107,0.0,0.00314107,0.0011323,0.00982323,0.0739094,0.0837326,0.0415106,0.0673069,0.108817,0.00325433
411.289,0.69172,-0.28731,6.03604,0.0014504,0.0615502,0.109423,0.00288808,0.0,0.00288808,0.00286776,0.0088717,0.0520585,0.0609302,0.0380768,0.0737958,0.111873,-0.00589727
413.199,0.61764,-0.28048,5.80588,-0.00526228,0.0288927,0.136682,0.00265799,0.0,0.00265799,-0.000496237,0.00802052,0.0327175,0.040738,0.0348937,0.08058,0.115474,-0.00625642
415.109,0.5715,-0.27546,5.5529,-0.00095822,0.0135668,0.111774,0.00244851,0.0,0.00244851,-0.00450726,0.00725839,0.0176769,0.0249353,0.031958,0.0875968,0.119555,0.00699941
417.019,0.56321,-0.28688,5.32545,0.0040685,0.00386949,0.144908,0.00225759,0.0,0.00225759,0.00255521,0.00657533,0.00776814,0.0143435,0.0292608,0.0947637,0.124025,-0.00753951
418.9284,0.56234,-0.28898,5.0705,0.00382234,-0.0,0.12842,0.00208342,0.0,0.00208342,-0.00110214,0.00596253,0.00254625,0.00850877,0.0267896,0.101976,0.128766,-0.00656349
420.838,0.56234,-0.2951,4.79161,0.00191642,0.000455533,0.138751,0.00192435,0.0,0.00192435,0.00167788,0.00541221,0.000538744,0.00595095,0.0245301,0.109106,0.133636,0.00975202
422.748,0.56016,-0.2951,4.54829,-0.00090583,0.00160223,0.129111,0.00177894,0.0,0.00177894,-0.0015079,0.00491751,5.65215e-05,0.00497404,0.0224671,0.116001,0.138468,-0.0141743
424.658,0.55712,-0.3006,4.25327,-0.000293137,0.00183785,0.163727,0.00164589,0.0,0.00164589,-0.00136808,0.00447237,1.6983e-06,0.00447407,0.0205855,0.122484,0.14307,0.00796995
426.568,0.55742,-0.31109,3.98732,0.0119645,-0.0013771,0.144437,0.00152402,0.0,0.00152402,0.00162305,0.00407142,3.53979e-09,0.00407142,0.0188705,0.128356,0.147226,-0.0104703
428.478,0.55758,-0.31566,3.68318,0.00729377,-0.00183261,0.151998,0.0014123,0.0,0.0014123,-0.00275535,0.00370991,1.64293e-15,0.00370991,0.0173077,0.133399,0.150707,0.0150955
430.387,0.55453,-0.33028,3.4341,-0.00375945,0.00617857,0.125487,0.00130979,0.0,0.00130979,0.00738598,0.00338364,0.0,0.00338364,0.0158839,0.137385,0.153269,-0.0113093
432.297,0.54923,-0.31796,3.14377,-0.00353436,-0.0,0.150647,0.00121565,0.0,0.00121565,-0.00287324,0.00308888,0.0,0.00308888,0.0145867,0.140079,0.154666,0.00347366
434.207,0.54792,-0.31612,2.86611,0.000958195,0.00160223,0.153082,0.00112911,0.0,0.00112911,-0.00125567,0.00282234,0.0,0.00282234,0.0134046,0.141257,0.154662,-0.000564778
436.117,0.54486,-0.31886,2.58639,0.00454487,0.000685932,0.145374,0.00104949,0.0,0.00104949,-0.00175191,0.00258108,0.0,0.00258108,0.0123269,0.140717,0.153044,-0.00426873
438.0267,0.54486,-0.32799,2.2911,0.00180644,-5.55112e-17,0.147259,0.00097619,0.0,0.00097619,0.00175191,0.00236249,0.0,0.00236249,0.0113441,0.138297,0.149641,0.0120468
439.937,0.54486,-0.33073,2.03975,0.00129854,0.000225149,0.139049,0.000908641,0.0,0.000908641,0.0020014,0.00216427,0.0,0.00216427,0.0104474,0.133895,0.144342,-0.00586163
441.846,0.54399,-0.32617,1.76702,-0.00334588,0.000460774,0.141746,0.000846344,0.0,0.000846344,-0.000997957,0.00198434,0.0,0.00198434,0.00962874,0.127486,0.137114,0.00577938
443.756,0.54312,-0.32525,1.51537,-0.000476482,0.000685922,0.112602,0.000788847,0.0,0.000788847,-2.74164e-06,0.00182087,0.0,0.00182087,0.00888092,0.119141,0.128022,0.00713923
445.666,0.5488,-0.32434,1.28976,-0.00159699,-0.000403245,0.135441,0.000735738,0.0,0.000735738,0.00050172,0.00167222,0.0,0.00167222,0.00819735,0.109043,0.11724,-0.000290614
447.576,0.53875,-0.3216,1.06309,0.000109955,0.00406319,0.0970034,0.000686646,0.0,0.000686646,-0.00438388,0.00153692,0.0,0.00153692,0.00757211,0.0974862,0.105058,0.00716939
449.486,0.53175,-0.33485,0.86257,0.00770232,0.00251856,0.107062,0.000641234,0.0,0.000641234,0.00266213,0.00141368,0.0,0.00141368,0.00699981,0.0848783,0.0918781,0.00244554
451.396,0.53529,-0.33839,0.67097,0.00188498,-0.00320449,0.0970086,0.000599195,0.0,0.000599195,6.30577e-05,0.00130131,0.0,0.00130131,0.0064756,0.0717186,0.0781943,0.00685684
453.305,0.53942,-0.3417,0.50438,0.0014661,-0.00251855,0.0696293,0.000560251,0.0,0.000560251,0.000531878,0.00119878,0.0,0.00119878,0.00599509,0.0585671,0.0645622,0.011896
455.215,0.54181,-0.34307,0.38118,0.000235621,0.00023038,0.059508,0.000524149,0.0,0.000524149,1.0842e-17,0.00110514,0.0,0.00110514,0.00555431,0.0459973,0.0515516,0.00976847
457.125,0.54051,-0.34444,0.29361,0.000958201,0.000455538,0.0367363,0.000490659,0.0,0.000490659,0.00175465,0.00101956,0.0,0.00101956,0.00514968,0.03454,0.0396897,0.00999876
459.035,0.53568,-0.33941,0.24251,-0.00334588,0.00091635,0.014771,0.000459572,0.0,0.000459572,-0.00225637,0.000941275,0.0,0.000941275,0.00477796,0.0246238,0.0294018,0.00916805
460.945,0.537,-0.34261,0.22485,0.00335109,-0.00411549,0.00686451,0.000430695,0.0,0.000430695,-0.00050172,0.000869609,0.0,0.000869609,0.00443621,0.0165233,0.0209595,0.00231669
462.854,0.55011,-0.34764,0.21564,0.00119384,-0.00274895,0.00326209,0.000403854,0.0,0.000403854,0.00137905,0.000803952,0.0,0.000803952,0.00412179,0.0103263,0.014448,0.00206446
464.764,0.55316,-0.34764,0.21396,-0.00120952,-0.00160224,-0.000439825,0.00037889,0.0,0.00037889,0.00300758,0.000743754,0.0,0.000743754,0.00383229,0.00593149,0.00976378,0.00172175
466.674,0.55579,-0.33667,0.21856,-0.00429363,-0.000685932,-0.00351864,0.000355658,0.0,0.000355658,-0.00338318,0.00068852,0.0,0.00068852,0.00356555,0.00307973,0.00664528,0.000474304
468.584,0.55579,-0.33804,0.22489,0.00334582,-5.55112e-17,-0.00262328,0.000334024,0.0,0.000334024,-0.00275535,0.000637803,0.0,0.000637803,0.0033196,0.00141475,0.00473435,-0.00128583
470.494,0.55579,-0.34946,0.22653,0.0043093,0.00320444,-0.0,0.000313866,0.0,0.000313866,0.00237974,0.0005912,0.0,0.0005912,0.00309265,0.000559094,0.00365175,-0.000449629
472.404,0.54923,-0.3522,0.22653,0.000235626,0.000455538,-0.0,0.000295072,0.0,0.000295072,0.000625094,0.000548346,0.0,0.000548346,0.00288309,0.000183076,0.00306616,-0.000115149
474.313,0.5488,-0.35266,0.22611,-0.00238762,0.00274891,0.00043983,0.000277541,0.0,0.000277541,-0.00053462,0.000508913,0.0,0.000508913,0.00268944,4.7179e-05,0.00273662,-0.000115149
476.2233,0.54049,-0.35507,0.22527,0.000717415,0.000455567,0.000225153,0.000261177,0.0,0.000261177,0.00232491,0.000472603,0.0,0.000472603,0.00251037,8.89479e-06,0.00251927,0.000230298
478.133,0.54311,-0.349,0.22527,-0.00192162,0.00023038,0.00064403,0.000245895,0.0,0.000245895,-0.000789593,0.000439145,0.0,0.000439145,0.00234467,1.10181e-06,0.00234578,0.000457854
480.043,0.54748,-0.34581,0.22694,-0.00118857,-0.00297411,-0.00240336,0.000231615,0.0,0.000231615,-0.0027389,0.000408295,0.0,0.000408295,0.00219124,7.59306e-08,0.00219132,0.000512687
481.953,0.55666,-0.35261,0.23048,0.00717344,-0.0050319,-0.00438256,0.000218264,0.0,0.000218264,0.00235233,0.000379831,0.0,0.000379831,0.00204908,2.2123e-09,0.00204908,0.00242087
483.863,0.55841,-0.35083,0.24285,0.00597946,-0.000685927,-0.00395849,0.000205776,0.0,0.000205776,-0.00249763,0.000353551,0.0,0.000353551,0.00191726,1.66094e-11,0.00191726,-0.00235781
485.772,0.55588,-0.35816,0.24662,-0.00764993,0.00388515,-0.00174362,0.000194089,0.0,0.000194089,0.00364364,0.000329273,0.0,0.000329273,0.00179496,1.16173e-14,0.00179496,-0.000457854
487.682,0.54967,-0.3522,0.24872,-0.00646126,0.00183262,-0.000848243,0.000183145,0.0,0.000183145,0.00199591,0.00030683,0.0,0.00030683,0.00168141,5.67458e-20,0.00168141,-2.74164e-06
489.592,0.54569,-0.33896,0.25081,0.00502131,0.00160224,-0.00112576,0.000172893,0.0,0.000172893,-0.00939012,0.000286071,0.0,0.000286071,0.00157592,6.49767e-32,0.00157592,-0.000227556
491.502,0.54486,-0.35997,0.25207,0.00335115,-0.00276462,-0.000450302,0.000163283,0.0,0.000163283,0.00789044,0.000266858,0.0,0.000266858,0.00147786,0.0,0.00147786,-2.74164e-06
493.412,0.55229,-0.3522,0.25332,0.00103144,0.00120426,-0.000644039,0.000154271,0.0,0.000154271,-0.00218235,0.000249065,0.0,0.000249065,0.00138665,0.0,0.00138665,-0.00073476
495.3216,0.53527,-0.35239,0.25189,-0.00364434,0.00796411,0.00175408,0.000145816,0.0,0.000145816,0.000104182,0.000232577,0.0,0.000232577,0.00130176,0.0,0.00130176,-1.91915e-05
497.231,0.54006,-0.3522,0.25039,0.00485378,-0.00434597,-0.0,0.00013788,0.0,0.00013788,-0.005157,0.00021729,0.0,0.00021729,0.0012227,0.0,0.0012227,0.000411246
498.186,0.54093,-0.36151,0.25039,0.00974951,-0.000911071,-0.0,0.000134096,0.0,0.000134096,-0.00512684,0.000210067,0.0,0.000210067,0.00118522,0.0,0.00118522,-0.0