File: data/NH4_deconvoluated_TGA_diff_evo.csv
temperature,rate_5,rate_3,rate_10,rate_3_diff,rate_5_diff,rate_10_diff,rate_3_diff_reaction_0,rate_3_diff_reaction_1,rate_3_diff_cumulative,rate_3_diff_diff,rate_5_diff_reaction_0,rate_5_diff_reaction_1,rate_5_diff_cumulative,rate_10_diff_reaction_0,rate_10_diff_reaction_1,rate_10_diff_cumulative,rate_10_diff_diff
31.23291,100.48,99.4638,99.6231,0.0,0.0,0.0,6.97385e-121,4.58915e-32,4.58915e-32,-0.0,2.38869e-112,1.95773e-22,1.95773e-22,1.02051e-122,1.69705e-25,1.69705e-25,-0.0
33.14274,100.497,99.46862,99.64153,0.0,0.0,0.0,4.00419e-120,6.85891e-32,6.85891e-32,-0.0,1.08591e-111,2.51834e-22,2.51834e-22,4.64153e-122,2.22724e-25,2.22724e-25,-0.0
35.05257,100.501,99.46966,99.66333,0.0,0.0,0.0,2.29909e-119,1.02513e-31,1.02513e-31,-0.0,4.93665e-111,3.23948e-22,3.23948e-22,2.11107e-121,2.92308e-25,2.92308e-25,-0.0
36.9624,100.4963,99.47695,99.66962,0.0,0.0,0.0,1.32008e-118,1.53215e-31,1.53215e-31,-0.0,2.24423e-110,4.16712e-22,4.16712e-22,9.60165e-121,3.83631e-25,3.83631e-25,-0.0
38.87223,100.521,99.48353,99.68218,0.0,0.0,0.0,7.57951e-118,2.28993e-31,2.28993e-31,-0.0,1.02024e-109,5.36039e-22,5.36039e-22,4.36705e-120,5.03486e-25,5.03486e-25,-0.0
40.78206,100.495,99.4777,99.68779,0.0,0.0,0.0,4.35195e-117,3.42251e-31,3.42251e-31,-0.0,4.6381e-109,6.89536e-22,6.89536e-22,1.98624e-119,6.60785e-25,6.60785e-25,-0.0
42.69189,100.497,99.47879,99.68806,0.0,0.0,0.0,2.49877e-116,5.11525e-31,5.11525e-31,-0.0,2.10851e-108,8.86988e-22,8.86988e-22,9.03385e-119,8.67228e-25,8.67228e-25,-0.0
44.60172,100.493,99.48014,99.68903,0.0,0.0,0.0,1.43472e-115,7.64521e-31,7.64521e-31,-0.0,9.58545e-108,1.14098e-21,1.14098e-21,4.1088e-118,1.13817e-24,1.13817e-24,-0.0
46.51155,100.505,99.48288,99.69812,0.0,0.0,0.0,8.23778e-115,1.14265e-30,1.14265e-30,-0.0,4.35762e-107,1.46771e-21,1.46771e-21,1.86878e-117,1.49375e-24,1.49375e-24,-0.0
48.42138,100.513,99.48926,99.69786,0.0,0.0,0.0,4.7299e-114,1.70779e-30,1.70779e-30,-0.0,1.981e-106,1.88799e-21,1.88799e-21,8.49963e-117,1.96043e-24,1.96043e-24,-0.0
50.33121,100.509,99.48889,99.70773,0.0,0.0,0.0,2.71578e-113,2.55245e-30,2.55245e-30,-0.0,9.00578e-106,2.42863e-21,2.42863e-21,3.86583e-116,2.57292e-24,2.57292e-24,-0.0
52.24104,100.51,99.48243,99.69943,0.0,0.0,0.0,1.55933e-112,3.81487e-30,3.81487e-30,-0.0,4.09409e-105,3.12408e-21,3.12408e-21,1.75827e-115,3.37675e-24,3.37675e-24,-0.0
54.15087,100.5,99.48243,99.69756,0.0,0.0,0.0,8.95321e-112,5.70166e-30,5.70166e-30,-0.0,1.8612e-104,4.01867e-21,4.01867e-21,7.99701e-115,4.43171e-24,4.43171e-24,-0.0
56.0607,100.521,99.49524,99.69343,0.0,0.0,0.0,5.14069e-111,8.52166e-30,8.52166e-30,-0.0,8.46115e-104,5.16944e-21,5.16944e-21,3.63722e-114,5.81627e-24,5.81627e-24,-0.0
57.97053,100.511,99.48608,99.70614,0.0,0.0,0.0,2.95164e-110,1.27364e-29,1.27364e-29,-0.0,3.8465e-103,6.64973e-21,6.64973e-21,1.65429e-113,7.6334e-24,7.6334e-24,-0.0
59.88036,100.511,99.50573,99.69183,0.0,0.0,0.0,1.69475e-109,1.90357e-29,1.90357e-29,-0.0,1.74865e-102,8.55391e-21,8.55391e-21,7.5241e-113,1.00182e-23,1.00182e-23,-0.0
61.79019,100.512,99.51169,99.7027,0.0,0.0,0.0,9.73078e-109,2.84506e-29,2.84506e-29,-0.0,7.94947e-102,1.10034e-20,1.10034e-20,3.42213e-112,1.31481e-23,1.31481e-23,-0.0
63.70002,100.508,99.51761,99.70519,0.0,0.0,0.0,5.58714e-108,4.2522e-29,4.2522e-29,-0.0,3.61388e-101,1.41542e-20,1.41542e-20,1.55647e-111,1.72559e-23,1.72559e-23,-0.0
65.60985,100.5095,99.51352,99.71066,0.0,0.0,0.0,3.20798e-107,6.3553e-29,6.3553e-29,-0.0,1.6429e-100,1.82074e-20,1.82074e-20,7.07916e-111,2.2647e-23,2.2647e-23,-0.0
67.51968,100.51,99.51303,99.71397,0.0,0.0,0.0,1.84193e-106,9.49858e-29,9.49858e-29,-0.0,7.46873e-100,2.34211e-20,2.34211e-20,3.21976e-110,2.97224e-23,2.97224e-23,-0.0
69.42951,100.51,99.50573,99.70066,0.0,0.0,0.0,1.05759e-105,1.41965e-28,1.41965e-28,-0.0,3.39534e-99,3.01279e-20,3.01279e-20,1.46442e-109,3.90082e-23,3.90082e-23,-0.0
71.33934,100.5086,99.51081,99.69517,0.0,0.0,0.0,6.07238e-105,2.1218e-28,2.1218e-28,-0.0,1.54354e-98,3.87551e-20,3.87551e-20,6.66053e-109,5.11952e-23,5.11952e-23,-0.0
73.24917,100.502,99.52174,99.6939,0.0,0.0,0.0,3.48659e-104,3.17122e-28,3.17122e-28,-0.0,7.01706e-98,4.98529e-20,4.98529e-20,3.02936e-108,6.71897e-23,6.71897e-23,-0.0
75.159,100.511,99.51839,99.70145,0.0,0.0,0.0,2.0019e-103,4.73967e-28,4.73967e-28,-0.0,3.19e-97,6.41285e-20,6.41285e-20,1.37782e-107,8.81811e-23,8.81811e-23,-0.0
77.06883,100.507,99.51943,99.71946,0.0,0.0,0.0,1.14944e-102,7.08387e-28,7.08387e-28,-0.0,1.4502e-96,8.2492e-20,8.2492e-20,6.26666e-107,1.15731e-22,1.15731e-22,-0.0
78.97866,100.503,99.52537,99.71946,0.0,0.0,0.0,6.59975e-102,1.05875e-27,1.05875e-27,-0.0,6.5927e-96,1.06114e-19,1.06114e-19,2.85022e-106,1.51887e-22,1.51887e-22,-0.0
80.88849,100.5,99.53634,99.70799,0.0,0.0,0.0,3.78939e-101,1.5824e-27,1.5824e-27,-0.0,2.99709e-95,1.365e-19,1.365e-19,1.29635e-105,1.9934e-22,1.9934e-22,-0.0
82.79832,100.503,99.51935,99.70477,0.0,0.0,0.0,2.17576e-100,2.36504e-27,2.36504e-27,-0.0,1.3625e-94,1.75588e-19,1.75588e-19,5.89608e-105,2.61618e-22,2.61618e-22,-0.0
84.70815,100.5042,99.52401,99.71234,0.0,0.0,0.0,1.24926e-99,3.53476e-27,3.53476e-27,-0.0,6.19401e-94,2.25868e-19,2.25868e-19,2.68167e-104,3.43353e-22,3.43353e-22,-0.0
86.61798,100.505,99.50984,99.71191,0.0,0.0,0.0,7.17293e-99,5.28303e-27,5.28303e-27,-0.0,2.81584e-93,2.90546e-19,2.90546e-19,1.21969e-103,4.50624e-22,4.50624e-22,-0.0
88.52781,100.501,99.51989,99.71862,0.0,0.0,0.0,4.11849e-98,7.89596e-27,7.89596e-27,-0.0,1.2801e-92,3.73746e-19,3.73746e-19,5.54741e-103,5.91408e-22,5.91408e-22,-0.0
90.43764,100.51,99.52583,99.72162,0.0,0.0,0.0,2.36473e-97,1.18012e-26,1.18012e-26,-0.0,5.81943e-92,4.80769e-19,4.80769e-19,2.52309e-102,7.76176e-22,7.76176e-22,-0.0
92.34747,100.509,99.53222,99.72662,0.0,0.0,0.0,1.35776e-96,1.7638e-26,1.7638e-26,-0.0,2.64555e-91,6.1844e-19,6.1844e-19,1.14756e-101,1.01867e-21,1.01867e-21,-0.0
94.2573,100.513,99.53496,99.72825,0.0,0.0,0.0,7.79588e-96,2.63616e-26,2.63616e-26,-0.0,1.20269e-90,7.95533e-19,7.95533e-19,5.21936e-101,1.33692e-21,1.33692e-21,-0.0
96.16713,100.512,99.53405,99.72883,0.0,0.0,0.0,4.47618e-95,3.93999e-26,3.93999e-26,-0.0,5.4675e-90,1.02334e-18,1.02334e-18,2.37389e-100,1.7546e-21,1.7546e-21,-0.0
98.07696,100.518,99.52309,99.71778,0.0,0.0,0.0,2.5701e-94,5.88867e-26,5.88867e-26,-0.0,2.48556e-89,1.31638e-18,1.31638e-18,1.0797e-99,2.30278e-21,2.30278e-21,-0.0
99.98679,100.523,99.52902,99.71651,0.0,0.0,0.0,1.47568e-93,8.80116e-26,8.80116e-26,-0.0,1.12995e-88,1.69333e-18,1.69333e-18,4.91072e-99,3.02222e-21,3.02222e-21,-0.0
101.897,100.518,99.54275,99.7136,0.0,0.0,0.0,8.47294e-93,1.31541e-25,1.31541e-25,-0.0,5.13685e-88,2.17822e-18,2.17822e-18,2.23351e-98,3.96642e-21,3.96642e-21,-0.0
103.806,100.52,99.53633,99.72072,0.0,0.0,0.0,4.86492e-92,1.966e-25,1.966e-25,-0.0,2.33525e-87,2.80196e-18,2.80196e-18,1.01585e-97,5.20561e-21,5.20561e-21,-0.0
105.716,100.536,99.5409,99.72362,0.0,0.0,0.0,2.7933e-91,2.93837e-25,2.93837e-25,-0.0,1.06162e-86,3.60432e-18,3.60432e-18,4.62032e-97,6.83195e-21,6.83195e-21,-0.0
107.626,100.536,99.52628,99.71995,0.0,0.0,0.0,1.60384e-90,4.39167e-25,4.39167e-25,-0.0,4.8262e-86,4.63643e-18,4.63643e-18,2.10143e-96,8.96639e-21,8.96639e-21,-0.0
109.536,100.519,99.53085,99.7161,0.0,0.0,0.0,9.20879e-90,6.56375e-25,6.56375e-25,-0.0,2.19403e-85,5.96409e-18,5.96409e-18,9.55777e-96,1.17677e-20,1.17677e-20,-0.0
111.446,100.512,99.53862,99.72407,0.0,0.0,0.0,5.28743e-89,9.81012e-25,9.81012e-25,-0.0,9.9742e-85,7.67194e-18,7.67194e-18,4.34709e-95,1.54441e-20,1.54441e-20,-0.0
113.3556,100.512,99.53405,99.72332,0.0,0.0,0.0,3.0359e-88,1.46621e-24,1.46621e-24,-0.0,4.53434e-84,9.86884e-18,9.86884e-18,1.97716e-94,2.02692e-20,2.02692e-20,-0.0
115.265,100.506,99.53679,99.72109,0.0,0.0,0.0,1.74313e-87,2.19139e-24,2.19139e-24,-0.0,2.06134e-83,1.26948e-17,1.26948e-17,8.99257e-94,2.66017e-20,2.66017e-20,-0.0
117.175,100.5086,99.5441,99.7245,0.0,0.0,0.0,1.00086e-86,3.27523e-24,3.27523e-24,-0.0,9.37101e-83,1.633e-17,1.633e-17,4.09003e-93,3.49127e-20,3.49127e-20,-0.0
119.085,100.496,99.53816,99.72239,0.0,0.0,0.0,5.74664e-86,4.89513e-24,4.89513e-24,-0.0,4.26013e-82,2.10062e-17,2.10062e-17,1.86024e-92,4.58201e-20,4.58201e-20,-0.0
120.995,100.496,99.53679,99.72615,0.0,0.0,0.0,3.29956e-85,7.31621e-24,7.31621e-24,-0.0,1.93668e-81,2.70215e-17,2.70215e-17,8.46079e-92,6.01353e-20,6.01353e-20,-0.0
122.905,100.4968,99.52628,99.72993,0.0,0.0,0.0,1.89452e-84,1.09347e-23,1.09347e-23,-0.0,8.8043e-81,3.47592e-17,3.47592e-17,3.84816e-91,7.89228e-20,7.89228e-20,-0.0
124.815,100.495,99.50984,99.73244,0.0,0.0,0.0,1.08778e-83,1.6343e-23,1.6343e-23,-0.0,4.0025e-80,4.47127e-17,4.47127e-17,1.75023e-90,1.0358e-19,1.0358e-19,-0.0
126.724,100.491,99.50635,99.73286,0.0,0.0,0.0,6.24572e-83,2.44261e-23,2.44261e-23,-0.0,1.81956e-79,5.75163e-17,5.75163e-17,7.96046e-90,1.3594e-19,1.3594e-19,-0.0
128.634,100.488,99.51349,99.73499,0.0,0.0,0.0,3.58612e-82,3.6507e-23,3.6507e-23,-0.0,8.27186e-79,7.39864e-17,7.39864e-17,3.6206e-89,1.78411e-19,1.78411e-19,-0.0
130.544,100.488,99.51486,99.72995,0.0,0.0,0.0,2.05905e-81,5.4563e-23,5.4563e-23,-0.0,3.76045e-78,9.51728e-17,9.51728e-17,1.64673e-88,2.3415e-19,2.3415e-19,-0.0
132.4539,100.486,99.52522,99.72825,0.0,0.0,0.0,1.18225e-80,8.15494e-23,8.15494e-23,-0.0,1.70953e-77,1.22426e-16,1.22426e-16,7.48972e-88,3.07304e-19,3.07304e-19,-0.0
134.364,100.479,99.50668,99.72846,0.0,0.0,0.0,6.78815e-80,1.21883e-22,1.21883e-22,-0.0,7.77162e-77,1.57483e-16,1.57483e-16,3.4065e-87,4.03312e-19,4.03312e-19,-0.0
136.274,100.474,99.49842,99.72296,0.0,0.0,0.0,3.89757e-79,1.82165e-22,1.82165e-22,-0.0,3.53304e-76,2.02579e-16,2.02579e-16,1.54935e-86,5.29315e-19,5.29315e-19,-0.0
138.183,100.478,99.51348,99.72407,0.0,0.0,0.0,2.23787e-78,2.72263e-22,2.72263e-22,-0.0,1.60614e-75,2.60589e-16,2.60589e-16,7.04681e-86,6.94683e-19,6.94683e-19,-0.0
140.093,100.4693,99.50755,99.73118,0.0,0.0,0.0,1.28493e-77,4.06921e-22,4.06921e-22,-0.0,7.30164e-75,3.3521e-16,3.3521e-16,3.20505e-85,9.11717e-19,9.11717e-19,-0.0
142.003,100.462,99.5071,99.73662,0.0,0.0,0.0,7.37769e-77,6.08181e-22,6.08181e-22,-0.0,3.31938e-74,4.31199e-16,4.31199e-16,1.45773e-84,1.19656e-18,1.19656e-18,-0.0
143.913,100.462,99.49659,99.73872,0.0,0.0,0.0,4.23606e-76,9.08982e-22,9.08982e-22,-0.0,1.50901e-73,5.54674e-16,5.54674e-16,6.63009e-84,1.57039e-18,1.57039e-18,-0.0
145.823,100.462,99.49946,99.73746,0.0,0.0,0.0,2.43223e-75,1.35856e-21,1.35856e-21,-0.0,6.86007e-73,7.13508e-16,7.13508e-16,3.01552e-83,2.06101e-18,2.06101e-18,-0.0
147.733,100.462,99.49328,99.73035,0.0,0.0,0.0,1.39652e-74,2.03049e-21,2.03049e-21,-0.0,3.11864e-72,9.17824e-16,9.17824e-16,1.37153e-82,2.70491e-18,2.70491e-18,-0.0
149.642,100.461,99.50299,99.72783,0.0,0.0,0.0,8.01842e-74,3.03475e-21,3.03475e-21,-0.0,1.41775e-71,1.18065e-15,1.18065e-15,6.23802e-82,3.54998e-18,3.54998e-18,-0.0
151.5522,100.447,99.49428,99.727,0.0,0.0,0.0,4.60396e-73,4.53571e-21,4.53571e-21,-0.0,6.44521e-71,1.51873e-15,1.51873e-15,2.8372e-81,4.65906e-18,4.65906e-18,-0.0
153.462,100.447,99.49255,99.73663,0.0,0.0,0.0,2.64346e-72,6.77903e-21,6.77903e-21,-0.0,2.93004e-70,1.95363e-15,1.95363e-15,1.29042e-80,6.11465e-18,6.11465e-18,-0.0
155.372,100.4448,99.47969,99.73453,0.0,0.0,0.0,1.5178e-71,1.01319e-20,1.01319e-20,-0.0,1.33202e-69,2.51306e-15,2.51306e-15,5.86913e-80,8.02499e-18,8.02499e-18,-0.0
157.282,100.442,99.46553,99.73244,0.0,0.0,0.0,8.71481e-71,1.5143e-20,1.5143e-20,-0.0,6.05544e-69,3.23268e-15,3.23268e-15,2.66942e-79,1.05322e-17,1.05322e-17,-0.0
159.192,100.439,99.47101,99.73035,0.0,0.0,0.0,5.0038e-70,2.26326e-20,2.26326e-20,-0.0,2.75285e-68,4.15838e-15,4.15838e-15,1.21411e-78,1.38226e-17,1.38226e-17,-0.0
161.101,100.433,99.46915,99.72825,0.0,0.0,0.0,2.87304e-69,3.38265e-20,3.38265e-20,-0.0,1.25146e-67,5.34915e-15,5.34915e-15,5.52206e-78,1.81411e-17,1.81411e-17,-0.0
163.011,100.419,99.4473,99.72825,0.0,0.0,0.0,1.64962e-68,5.05568e-20,5.05568e-20,-0.0,5.68924e-67,6.88091e-15,6.88091e-15,2.51156e-77,2.38088e-17,2.38088e-17,-0.0
164.921,100.416,99.43046,99.72825,0.0,0.0,0.0,9.47167e-68,7.55617e-20,7.55617e-20,-0.0,2.58637e-66,8.85128e-15,8.85128e-15,1.14232e-76,3.12471e-17,3.12471e-17,-0.0
166.831,100.401,99.41025,99.72825,0.0,0.0,0.0,5.43837e-67,1.12934e-19,1.12934e-19,-0.0,1.17578e-65,1.13859e-14,1.13859e-14,5.19551e-76,4.10094e-17,4.10094e-17,-0.0
168.741,100.391,99.40031,99.72825,0.0,0.0,0.0,3.12256e-66,1.6879e-19,1.6879e-19,-0.0,5.34518e-65,1.46463e-14,1.46463e-14,2.36304e-75,5.38215e-17,5.38215e-17,-0.0
170.6505,100.385,99.40066,99.72742,0.0,0.0,0.0,1.79289e-65,2.52272e-19,2.52272e-19,-0.0,2.42996e-64,1.88403e-14,1.88403e-14,1.07476e-74,7.06365e-17,7.06365e-17,-0.0
172.56,100.372,99.38067,99.72616,0.0,0.0,0.0,1.02943e-64,3.77044e-19,3.77044e-19,-0.0,1.10468e-63,2.42354e-14,2.42354e-14,4.88827e-74,9.27048e-17,9.27048e-17,-0.0
174.47,100.3513,99.35704,99.72532,0.0,0.0,0.0,5.91068e-64,5.63526e-19,5.63526e-19,-0.0,5.02193e-63,3.11753e-14,3.11753e-14,2.2233e-73,1.21668e-16,1.21668e-16,-0.0
176.38,100.345,99.33657,99.71355,0.0,0.0,0.0,3.39375e-63,8.42241e-19,8.42241e-19,-0.0,2.28301e-62,4.01024e-14,4.01024e-14,1.01121e-72,1.59679e-16,1.59679e-16,-0.0
178.29,100.335,99.30244,99.70313,0.0,0.0,0.0,1.9486e-62,1.25881e-18,1.25881e-18,-0.0,1.03787e-61,5.1586e-14,5.1586e-14,4.5992e-72,2.09566e-16,2.09566e-16,-0.0
180.2,100.3263,99.27412,99.70399,0.0,0.0,0.0,1.11883e-61,1.8814e-18,1.8814e-18,-0.0,4.71823e-61,6.63579e-14,6.63579e-14,2.09182e-71,2.75039e-16,2.75039e-16,-0.0
182.109,100.306,99.23537,99.7069,0.0,0.0,0.0,6.42401e-61,2.81192e-18,2.81192e-18,-0.0,2.14494e-60,8.53597e-14,8.53597e-14,9.5141e-71,3.60967e-16,3.60967e-16,-0.0
184.019,100.288,99.21015,99.69388,0.0,0.0,0.0,3.68849e-60,4.20268e-18,4.20268e-18,-0.0,9.75106e-60,1.09803e-13,1.09803e-13,4.32723e-70,4.73741e-16,4.73741e-16,-0.0
185.929,100.271,99.17912,99.68891,0.0,0.0,0.0,2.11783e-59,6.28129e-18,6.28129e-18,-0.0,4.4329e-59,1.41246e-13,1.41246e-13,1.96812e-69,6.21747e-16,6.21747e-16,-0.0
187.839,100.256,99.14296,99.68385,0.0,0.0,0.0,1.216e-58,9.38795e-18,9.38795e-18,-0.0,2.01523e-58,1.81692e-13,1.81692e-13,8.95148e-69,8.15994e-16,8.15994e-16,-0.0
189.7488,100.225,99.09674,99.67466,0.0,0.0,0.0,6.98193e-58,1.40312e-17,1.40312e-17,-0.0,9.16137e-58,2.3372e-13,2.3372e-13,4.07134e-68,1.07093e-15,1.07093e-15,-0.0
191.659,100.2,99.05569,99.66266,0.0,0.0,0.0,4.00883e-57,2.09708e-17,2.09708e-17,-0.0,4.16482e-57,3.00647e-13,3.00647e-13,1.85174e-67,1.40551e-15,1.40551e-15,-0.0
193.568,100.157,99.00489,99.64727,0.0,0.0,0.0,2.30176e-56,3.13428e-17,3.13428e-17,-0.0,1.89336e-56,3.86739e-13,3.86739e-13,8.42213e-67,1.84462e-15,1.84462e-15,-0.0
195.478,100.1364,98.96296,99.63227,0.0,0.0,0.0,1.32161e-55,4.68447e-17,4.68447e-17,-0.0,8.60733e-56,4.97483e-13,4.97483e-13,3.83058e-66,2.42091e-15,2.42091e-15,-0.0
197.388,100.1003,98.88873,99.62483,0.0,0.0,0.0,7.58829e-55,7.00137e-17,7.00137e-17,-0.0,3.91295e-55,6.3994e-13,6.3994e-13,1.74223e-65,3.17726e-15,3.17726e-15,-0.0
199.298,100.07,98.82377,99.6106,0.0,0.0,0.0,4.35699e-54,1.04642e-16,1.04642e-16,-0.0,1.77886e-54,8.2319e-13,8.2319e-13,7.92408e-65,4.1699e-15,4.1699e-15,-0.0
201.208,100.026,98.75421,99.59109,0.0,0.0,0.0,2.50166e-53,1.56397e-16,1.56397e-16,-0.0,8.08681e-54,1.05891e-12,1.05891e-12,3.60406e-64,5.47266e-15,5.47266e-15,-0.0
203.118,99.97859,98.67028,99.5692,0.0,0.0,0.0,1.43638e-52,2.33749e-16,2.33749e-16,-0.0,3.67632e-53,1.36214e-12,1.36214e-12,1.63921e-63,7.18243e-15,7.18243e-15,-0.0
205.027,99.9299,98.58647,99.5549,0.0,0.0,0.0,8.24732e-52,3.4936e-16,3.4936e-16,-0.0,1.67128e-52,1.75219e-12,1.75219e-12,7.45549e-63,9.42637e-15,9.42637e-15,-0.0
206.937,99.88424,98.49598,99.53554,0.0,0.0,0.0,4.73538e-51,5.2215e-16,5.2215e-16,-0.0,7.59776e-52,2.25394e-12,2.25394e-12,3.39093e-62,1.23714e-14,1.23714e-14,-0.0
208.8471,99.82877,98.39049,99.51034,0.0,0.0,0.0,2.71893e-50,7.80401e-16,7.80401e-16,-0.0,3.454e-51,2.89937e-12,2.89937e-12,1.54227e-61,1.62364e-14,1.62364e-14,-0.0
210.757,99.76761,98.26963,99.48788,0.0,0.0,0.0,1.56113e-49,1.16638e-15,1.16638e-15,-0.0,1.57021e-50,3.72962e-12,3.72962e-12,7.01461e-61,2.1309e-14,2.1309e-14,-0.0
212.667,99.69944,98.14435,99.4622,0.0,0.0,0.0,8.96358e-49,1.74326e-15,1.74326e-15,-0.0,7.13829e-50,4.79761e-12,4.79761e-12,3.1904e-60,2.79664e-14,2.79664e-14,-0.0
214.577,99.62459,98.02667,99.43169,0.0,0.0,0.0,5.14664e-48,2.60546e-15,2.60546e-15,-0.0,3.24512e-49,6.17143e-12,6.17143e-12,1.45107e-59,3.67037e-14,3.67037e-14,-0.0
216.486,99.54506,97.88069,99.40501,0.0,0.0,0.0,2.95506e-47,3.8941e-15,3.8941e-15,-0.0,1.47525e-48,7.93865e-12,7.93865e-12,6.5998e-59,4.81707e-14,4.81707e-14,-0.0
218.396,99.46629,97.72702,99.36774,0.0,0.0,0.0,1.69671e-46,5.82009e-15,5.82009e-15,-0.0,6.7066e-48,1.02119e-11,1.02119e-11,3.00174e-58,6.32202e-14,6.32202e-14,-0.0
220.306,99.37386,97.54188,99.33066,0.0,0.0,0.0,9.74205e-46,8.69865e-15,8.69865e-15,-0.0,3.04887e-47,1.31362e-11,1.31362e-11,1.36526e-57,8.29715e-14,8.29715e-14,-0.0
222.216,99.27461,97.35324,99.28228,0.0,0.0,0.0,5.59362e-45,1.30009e-14,1.30009e-14,-0.0,1.38604e-46,1.68978e-11,1.68978e-11,6.20952e-57,1.08894e-13,1.08894e-13,-0.0
224.126,99.15682,97.14988,99.23402,0.0,0.0,0.0,3.2117e-44,1.94311e-14,1.94311e-14,-0.0,6.30102e-46,2.17365e-11,2.17365e-11,2.82423e-56,1.42914e-13,1.42914e-13,-0.0
226.036,99.03779,96.9074,99.18104,0.0,0.0,0.0,1.84407e-43,2.90415e-14,2.90415e-14,-0.0,2.86449e-45,2.79609e-11,2.79609e-11,1.28452e-55,1.87564e-13,1.87564e-13,-0.0
227.9454,98.90905,96.70436,99.13042,0.0,0.0,0.0,1.05881e-42,4.34052e-14,4.34052e-14,-0.0,1.30222e-44,3.59676e-11,3.59676e-11,5.84231e-55,2.46162e-13,2.46162e-13,-0.0
229.855,98.77218,96.45885,99.06977,0.0,0.0,0.0,6.07941e-42,6.4873e-14,6.4873e-14,-0.0,5.91997e-44,4.62671e-11,4.62671e-11,2.65722e-54,3.23068e-13,3.23068e-13,-0.0
231.765,98.60486,96.16864,99.00769,0.0,0.0,0.0,3.49063e-41,9.69587e-14,9.69587e-14,-0.0,2.69126e-43,5.95159e-11,5.95159e-11,1.20856e-53,4.24002e-13,4.24002e-13,-0.0
233.675,98.45575,95.88332,98.93039,0.0,0.0,0.0,2.00422e-40,1.44914e-13,1.44914e-13,-0.0,1.22347e-42,7.65585e-11,7.65585e-11,5.49683e-53,5.56469e-13,5.56469e-13,-0.0
235.585,98.28793,95.57873,98.84946,0.0,0.0,0.0,1.15077e-39,2.16587e-13,2.16587e-13,-0.0,5.56196e-42,9.84814e-11,9.84814e-11,2.50008e-52,7.30321e-13,7.30321e-13,-0.0
237.495,98.08414,95.22173,98.75559,0.0,0.0,0.0,6.6074e-39,3.23708e-13,3.23708e-13,-0.0,2.52851e-41,1.26682e-10,1.26682e-10,1.1371e-51,9.58488e-13,9.58488e-13,-0.0
239.404,97.86735,94.84879,98.66464,0.0,0.0,0.0,3.79378e-38,4.83812e-13,4.83812e-13,-0.0,1.14948e-40,1.62958e-10,1.62958e-10,5.17177e-51,1.25794e-12,1.25794e-12,-0.0
241.314,97.64926,94.45719,98.55718,0.0,0.0,0.0,2.17829e-37,7.23101e-13,7.23101e-13,-0.0,5.2256e-40,2.09622e-10,2.09622e-10,2.35224e-50,1.65095e-12,1.65095e-12,-0.0
243.224,97.40427,94.02453,98.44278,0.0,0.0,0.0,1.25071e-36,1.08074e-12,1.08074e-12,-0.0,2.3756e-39,2.69648e-10,2.69648e-10,1.06985e-49,2.16674e-12,2.16674e-12,-0.0
245.134,97.13828,93.56928,98.30882,0.0,0.0,0.0,7.18124e-36,1.61526e-12,1.61526e-12,-0.0,1.07996e-38,3.46863e-10,3.46863e-10,4.86594e-49,2.84367e-12,2.84367e-12,-0.0
247.0437,96.86399,93.06861,98.18155,0.0,0.0,0.0,4.12327e-35,2.41416e-12,2.41416e-12,-0.0,4.90958e-38,4.46189e-10,4.46189e-10,2.21314e-48,3.73209e-12,3.73209e-12,-0.0
248.954,96.56531,92.55018,98.06027,0.0,0.0,0.0,2.36747e-34,3.60818e-12,3.60818e-12,-0.0,2.23193e-37,5.73957e-10,5.73957e-10,1.00659e-47,4.89807e-12,4.89807e-12,-0.0
250.863,96.24748,91.96754,97.90818,0.0,0.0,0.0,1.35933e-33,5.39276e-12,5.39276e-12,-0.0,1.01465e-36,7.38313e-10,7.38313e-10,4.57819e-47,6.42833e-12,6.42833e-12,-0.0
252.773,95.92095,91.36449,97.74969,0.0,0.0,0.0,7.80491e-33,8.05997e-12,8.05997e-12,-0.0,4.61268e-36,9.49732e-10,9.49732e-10,2.08226e-46,8.43668e-12,8.43668e-12,-0.0
254.683,95.56277,90.72334,97.58442,0.0,0.0,0.0,4.48136e-32,1.20464e-11,1.20464e-11,-0.0,2.09696e-35,1.22169e-09,1.22169e-09,9.47062e-46,1.10725e-11,1.10725e-11,-0.0
256.593,95.16733,89.98949,97.39913,0.0,0.0,0.0,2.57307e-31,1.80044e-11,1.80044e-11,-0.0,9.53291e-35,1.57153e-09,1.57153e-09,4.30745e-45,1.45317e-11,1.45317e-11,-0.0
258.503,94.74771,89.27783,97.21606,0.0,0.0,0.0,1.47739e-30,2.69092e-11,2.69092e-11,-0.0,4.33373e-34,2.02154e-09,2.02154e-09,1.95913e-44,1.90718e-11,1.90718e-11,-0.0
260.413,94.28847,88.48251,96.9499,0.0,0.0,0.0,8.48275e-30,4.02182e-11,4.02182e-11,-0.0,1.97014e-33,2.60042e-09,2.60042e-09,8.91057e-44,2.50302e-11,2.50302e-11,-0.0
262.322,93.78135,87.61111,96.75924,0.0,0.0,0.0,4.87056e-29,6.01098e-11,6.01098e-11,-0.0,8.95641e-33,3.34507e-09,3.34507e-09,4.05273e-43,3.28501e-11,3.28501e-11,-0.0
264.232,93.25518,86.6803,96.48683,0.0,0.0,0.0,2.79654e-28,8.98396e-11,8.98396e-11,-0.0,4.07165e-32,4.30294e-09,4.30294e-09,1.84328e-42,4.31132e-11,4.31132e-11,-0.0
266.142,92.70964,85.7137,96.23387,0.0,0.0,0.0,1.6057e-27,1.34273e-10,1.34273e-10,-0.0,1.851e-31,5.53511e-09,5.53511e-09,8.38364e-42,5.65826e-11,5.65826e-11,-0.0
268.052,92.13673,84.69048,95.95109,0.0,0.0,0.0,9.21946e-27,2.00684e-10,2.00684e-10,-0.0,8.41477e-31,7.12012e-09,7.12012e-09,3.81307e-41,7.42602e-11,7.42602e-11,-0.0
269.962,91.49499,83.54868,95.64494,0.0,0.0,0.0,5.29356e-26,2.9994e-10,2.9994e-10,-0.0,3.82542e-30,9.159e-09,9.159e-09,1.73427e-40,9.74606e-11,9.74606e-11,-0.0
271.871,90.83495,82.37462,95.31158,0.0,0.0,0.0,3.03942e-25,4.48288e-10,4.48288e-10,-0.0,1.73906e-29,1.17817e-08,1.17817e-08,7.88787e-40,1.27909e-10,1.27909e-10,-0.0
273.781,90.13767,81.12605,94.95677,0.0,0.0,0.0,1.74515e-24,6.70008e-10,6.70008e-10,-0.0,7.90589e-29,1.51555e-08,1.51555e-08,3.58758e-39,1.67871e-10,1.67871e-10,-0.0
275.691,89.39725,79.82123,94.60984,0.0,0.0,0.0,1.00202e-23,1.00139e-09,1.00139e-09,-0.0,3.59407e-28,1.94953e-08,1.94953e-08,1.63172e-38,2.20317e-10,2.20317e-10,-0.0
277.601,88.57641,78.401,94.20441,0.0,0.0,0.0,5.75329e-23,1.49666e-09,1.49666e-09,-0.0,1.63389e-27,2.50779e-08,2.50779e-08,7.42142e-38,2.89149e-10,2.89149e-10,-0.0
279.511,87.73168,76.9138,93.76714,0.0,0.0,0.0,3.30338e-22,2.2369e-09,2.2369e-09,-0.0,7.42778e-27,3.2259e-08,3.2259e-08,3.37543e-37,3.79485e-10,3.79485e-10,-0.0
281.421,86.81597,75.32968,93.3341,0.0,0.0,0.0,1.89671e-21,3.34325e-09,3.34325e-09,-0.0,3.37672e-26,4.14966e-08,4.14966e-08,1.53522e-36,4.98044e-10,4.98044e-10,-0.0
283.33,85.8422,73.62185,92.86816,0.0,0.0,0.0,1.08904e-20,4.9968e-09,4.9968e-09,-0.0,1.53508e-25,5.33793e-08,5.33793e-08,6.98255e-36,6.53643e-10,6.53643e-10,-0.0
285.2403,84.83301,71.77826,92.34125,0.0,0.0,0.0,6.25296e-20,7.46817e-09,7.46817e-09,-0.0,6.97859e-25,6.86647e-08,6.86647e-08,3.17582e-35,8.57855e-10,8.57855e-10,-0.0
287.15,83.7282,69.8679,91.79598,0.0,0.0,0.0,3.59027e-19,1.11619e-08,1.11619e-08,-0.0,3.17252e-24,8.83272e-08,8.83272e-08,1.44444e-34,1.12587e-09,1.12587e-09,-0.0
289.06,82.58543,67.84064,91.21644,0.0,0.0,0.0,2.06144e-18,1.66824e-08,1.66824e-08,-0.0,1.44225e-23,1.1362e-07,1.1362e-07,6.56963e-34,1.47761e-09,1.47761e-09,-0.0
290.97,81.33636,65.73334,90.59359,0.0,0.0,0.0,1.18362e-17,2.49334e-08,2.49334e-08,-0.0,6.55656e-23,1.46156e-07,1.46156e-07,2.98802e-33,1.93925e-09,1.93925e-09,-0.0
292.88,80.05076,63.49081,89.93223,0.0,0.0,0.0,6.79601e-17,3.72652e-08,3.72652e-08,-0.0,2.98066e-22,1.88008e-07,1.88008e-07,1.35902e-32,2.54511e-09,2.54511e-09,-0.0
294.789,78.67713,61.10376,89.21716,0.0,0.0,0.0,3.90208e-16,5.56963e-08,5.56963e-08,-0.0,1.35503e-21,2.41845e-07,2.41845e-07,6.18114e-32,3.34025e-09,3.34025e-09,-0.0
296.699,77.20094,58.62307,88.47506,0.0,0.0,0.0,2.24047e-15,8.32432e-08,8.32432e-08,-0.0,6.16006e-21,3.11098e-07,3.11098e-07,2.81132e-31,4.38381e-09,4.38381e-09,-0.0
298.609,75.66877,55.98223,87.70344,0.0,0.0,0.0,1.28641e-14,1.24414e-07,1.24414e-07,-0.0,2.8004e-20,4.00182e-07,4.00182e-07,1.27865e-30,5.75341e-09,5.75341e-09,-0.0
300.519,74.0299,53.18616,86.86716,0.0,0.0,0.0,7.38623e-14,1.85949e-07,1.85949e-07,-0.0,1.27308e-19,5.14775e-07,5.14775e-07,5.81561e-30,7.55089e-09,7.55089e-09,-0.0
302.429,72.32263,50.40399,85.96928,0.0,0.0,0.0,4.24097e-13,2.77917e-07,2.77917e-07,-0.0,5.78753e-19,6.62183e-07,6.62183e-07,2.64507e-29,9.90995e-09,9.90995e-09,-0.0
304.3386,70.51601,47.26933,85.05117,0.0,0.0,0.0,2.43505e-12,4.15372e-07,4.15374e-07,-0.0,2.63105e-18,8.518e-07,8.518e-07,1.20304e-28,1.3006e-08,1.3006e-08,-0.0
306.248,68.58813,44.14667,84.06622,0.0,0.0,0.0,1.39814e-11,6.2081e-07,6.20824e-07,-0.0,1.19609e-17,1.09571e-06,1.09571e-06,5.4717e-28,1.70694e-08,1.70694e-08,-0.0
308.158,66.56911,40.92822,83.01113,0.0,0.0,0.0,8.02771e-11,9.27855e-07,9.27936e-07,-0.0,5.43753e-17,1.40947e-06,1.40947e-06,2.48865e-27,2.24022e-08,2.24022e-08,-0.0
310.068,64.45831,37.57973,81.91222,0.0,0.0,0.0,4.60929e-10,1.38676e-06,1.38722e-06,-0.0,2.47194e-16,1.81307e-06,1.81307e-06,1.1319e-26,2.94011e-08,2.94011e-08,-0.0
311.978,62.23063,34.15332,80.74003,0.0,0.0,0.0,2.64653e-09,2.07263e-06,2.07528e-06,-0.0,1.12376e-15,2.33225e-06,2.33225e-06,5.14812e-26,3.85866e-08,3.85866e-08,-0.0
313.888,59.92364,30.63379,79.50309,0.0,0.0,0.0,1.51956e-08,3.09771e-06,3.1129e-06,-0.0,5.1087e-15,3.00007e-06,3.00007e-06,2.34148e-25,5.06419e-08,5.06419e-08,-0.0
315.798,57.51787,27.06147,78.19938,0.0,0.0,0.0,8.7249e-08,4.62976e-06,4.71701e-06,-0.0,2.32245e-14,3.85913e-06,3.85913e-06,1.06496e-24,6.64634e-08,6.64634e-08,-0.0
317.707,54.99456,23.50287,76.83884,0.0,0.0,0.0,5.00958e-07,6.91948e-06,7.42043e-06,-0.0,1.0558e-13,4.96415e-06,4.96415e-06,4.84367e-24,8.7228e-08,8.7228e-08,-0.0
319.617,52.36078,19.97786,75.37068,0.0,0.0,0.0,2.87631e-06,1.03415e-05,1.32178e-05,-0.0,4.79975e-13,6.38557e-06,6.38557e-06,2.20301e-23,1.1448e-07,1.1448e-07,-0.0
321.527,49.66105,16.63637,73.85229,0.0,0.0,0.0,1.65133e-05,1.54558e-05,3.19691e-05,-0.0,2.182e-12,8.21395e-06,8.21395e-06,1.00198e-22,1.50246e-07,1.50246e-07,-0.0
323.4369,46.79411,13.35642,72.23983,0.0,0.0,0.0,9.47606e-05,2.30988e-05,0.000117859,-0.0,9.91952e-12,1.05658e-05,1.05658e-05,4.55721e-22,1.97185e-07,1.97185e-07,-0.0
325.347,43.76446,10.50329,70.59556,0.0,0.0,0.0,0.000542311,3.45203e-05,0.000576831,-0.0,4.50949e-11,1.3591e-05,1.3591e-05,2.07272e-21,2.5879e-07,2.5879e-07,-0.0
327.257,40.66208,8.28968,68.84063,0.0,0.0,0.0,0.00305645,5.15873e-05,0.00310804,-0.0,2.05004e-10,1.74821e-05,1.74823e-05,9.42717e-21,3.39641e-07,3.39641e-07,-0.0
329.166,37.46863,7.85587,67.00937,0.0,0.0,0.0,0.0158712,7.70874e-05,0.0159483,-0.0220454,9.31964e-10,2.2487e-05,2.2488e-05,4.28767e-20,4.45751e-07,4.45751e-07,-0.0
331.076,34.26682,7.77546,65.11932,0.0666184,0.0,0.0,0.058829,0.000115182,0.0589442,-0.0238632,4.23677e-09,2.89244e-05,2.89287e-05,1.95012e-19,5.85013e-07,5.85013e-07,-0.0
332.986,30.9666,7.60801,63.12332,0.104899,0.0,0.0,0.111292,0.000172078,0.111464,-0.0165814,1.92607e-08,3.7204e-05,3.72232e-05,8.86955e-19,7.67782e-07,7.67782e-07,-0.0
334.896,27.70916,7.38008,61.05362,0.133499,0.0,0.0,0.131754,0.000257025,0.132011,-0.0106047,8.75603e-08,4.78523e-05,4.79399e-05,4.03405e-18,1.00765e-06,1.00765e-06,-0.0
336.806,24.41698,7.11347,58.67605,0.137766,0.0,0.0,0.136109,0.000383789,0.136493,0.00484722,3.98054e-07,6.15465e-05,6.19446e-05,1.83476e-17,1.32246e-06,1.32246e-06,-0.0
338.716,21.12637,6.86454,56.48976,0.133965,0.0,0.0,0.136891,0.000572808,0.137463,-0.00484174,1.80956e-06,7.91565e-05,8.09661e-05,8.34482e-17,1.73561e-06,1.73561e-06,-0.0
340.625,17.87099,6.59795,54.2501,0.139944,0.0,0.0,0.137017,0.000854334,0.137871,-0.0013434,8.22601e-06,0.0001018,0.000110026,3.79536e-16,2.27785e-06,2.27785e-06,-0.0
342.5352,14.76327,6.32646,51.96083,0.14052,0.0,0.0,0.137022,0.00127292,0.138295,0.00400554,3.73878e-05,0.000130912,0.0001683,1.72619e-15,2.98947e-06,2.98947e-06,-0.0
344.445,11.90823,6.06958,49.38426,0.140484,0.0,0.0,0.136995,0.00189374,0.138889,-0.006314,0.000169797,0.000168336,0.000338133,7.85094e-15,3.92342e-06,3.92342e-06,-0.0
346.355,9.7304,5.78967,46.93744,0.148181,0.0,0.0,0.136945,0.002811,0.139756,-0.00155725,0.000768411,0.000216434,0.000984845,3.5707e-14,5.14912e-06,5.14912e-06,-0.0
348.265,9.13682,5.50408,44.30513,0.135986,0.0,0.0,0.136862,0.00415878,0.141021,0.00600694,0.00342274,0.000278236,0.00370097,1.62398e-13,6.75772e-06,6.75772e-06,-0.0
350.175,9.1495,5.2404,41.66966,0.149914,0.00114661,0.0,0.136726,0.00612308,0.142849,-0.00255521,0.0142521,0.000357621,0.0146097,7.38597e-13,8.8688e-06,8.8688e-06,-0.0
352.084,9.09947,4.9674,38.95548,0.128483,0.0559734,0.0,0.136505,0.00895215,0.145457,-0.000636061,0.0468781,0.000459551,0.0473377,3.35915e-12,1.16393e-05,1.16393e-05,-0.0
353.994,8.95093,4.69208,36.18157,0.155265,0.0938617,0.0,0.136145,0.0129579,0.149103,-0.00279922,0.0944281,0.000590359,0.0950185,1.52773e-11,1.52752e-05,1.52752e-05,-0.0
355.904,8.73911,4.40655,33.44634,0.1444,0.117822,0.0,0.135561,0.0184953,0.154056,0.0012776,0.121548,0.000758113,0.122306,6.94798e-11,2.00467e-05,2.00467e-05,-0.0
357.814,8.52262,4.12568,30.64186,0.164941,0.121759,0.0,0.134617,0.0259007,0.160517,-0.0135547,0.129744,0.000973063,0.130718,3.15983e-10,2.63083e-05,2.63086e-05,-0.0
359.724,8.27337,3.79537,27.84142,0.170633,0.131624,0.0,0.133102,0.0353786,0.16848,-0.0026073,0.131697,0.00124818,0.132945,1.43701e-09,3.45251e-05,3.45265e-05,-0.0
361.6335,8.02113,3.45555,24.95994,0.184451,0.140871,0.0,0.130699,0.0468489,0.177548,-0.00429889,0.132134,0.00159981,0.133733,6.53501e-09,4.53072e-05,4.53137e-05,-0.0
363.543,7.73137,3.10005,22.07181,0.184362,0.13918,0.0,0.126953,0.0598269,0.18678,0.00337222,0.132228,0.00204842,0.134276,2.9718e-08,5.94548e-05,5.94845e-05,-0.0
365.453,7.48592,2.75685,19.25607,0.194111,0.141824,0.0,0.121274,0.0734385,0.194713,-0.00897887,0.132246,0.00261943,0.134865,1.35138e-07,7.80173e-05,7.81524e-05,-0.0
367.363,7.19556,2.3809,16.50853,0.19707,0.138745,0.0,0.113013,0.0866252,0.199639,-0.00366832,0.132245,0.00334411,0.135589,6.14488e-07,0.00010237,0.000102984,-0.0
369.273,6.93702,1.99157,14.03402,0.198646,0.142678,0.0,0.101693,0.0984535,0.200147,0.00552166,0.132236,0.00426039,0.136497,2.79395e-06,0.000134315,0.000137109,-0.0
371.183,6.66604,1.62238,11.77803,0.195206,0.137138,0.0,0.0873897,0.108352,0.195742,-0.000531878,0.132221,0.00541347,0.137635,1.27016e-05,0.000176215,0.000188916,-0.0
373.092,6.42554,1.25125,10.00586,0.19163,0.13463,0.0,0.0710575,0.116166,0.187224,0.00446065,0.132197,0.00685599,0.139053,5.77164e-05,0.000231158,0.000288874,-0.0
375.002,6.15029,0.89639,8.95686,0.166989,0.135892,0.0,0.0544336,0.122044,0.176478,0.00486367,0.132158,0.00864727,0.140806,0.000261784,0.000303188,0.000564971,-0.0
376.912,5.89126,0.55927,8.88475,0.184765,0.132829,0.0,0.0393791,0.126172,0.165551,0.010739,0.132096,0.0108513,0.142947,0.00117797,0.000397585,0.00157555,0.000915698
378.822,5.63066,0.26132,8.88809,0.140798,0.140934,-0.000204223,0.0271218,0.12725,0.154372,0.00678502,0.131995,0.0135327,0.145527,0.00512033,0.000521241,0.00564157,-0.0045429
380.7318,5.35396,-0.01188198,8.87486,0.126582,0.137201,0.0200017,0.0179777,0.109034,0.127012,0.0264141,0.131833,0.0167503,0.148583,0.0194207,0.000683128,0.0201039,-0.0171544
382.642,5.06069,-0.18874,8.79906,0.0518635,0.16512,0.0540886,0.0115915,0.0376407,0.0492322,0.0386155,0.131573,0.0205485,0.152121,0.0503666,0.000894905,0.0512615,-0.0134998
384.551,4.76901,-0.22475,8.67402,0.00764991,0.154799,0.0813422,0.00733417,0.00417024,0.0115044,0.00886921,0.131156,0.0249458,0.156101,0.077496,0.00117167,0.0786676,-0.01007
386.461,4.45725,-0.22841,8.51225,-0.00479098,0.175283,0.0787191,0.00458336,0.000351077,0.00493444,0.00330916,0.13049,0.029924,0.160414,0.0877979,0.00153288,0.0893308,-0.00125293
388.371,4.13487,-0.22,8.34591,0.0112208,0.168434,0.0907097,0.00284169,2.87323e-05,0.00287042,-0.00660461,0.129431,0.0354187,0.16485,0.090284,0.00200352,0.0922875,-1.37082e-05
390.281,3.81722,-0.23568,8.17952,0.00409448,0.169141,0.0897305,0.0017531,2.3437e-06,0.00175544,-0.000219331,0.127762,0.0413164,0.169078,0.0906507,0.00261535,0.093266,-0.000405763
392.191,3.50101,-0.25216,8.01165,0.00358668,0.163988,0.0905578,0.00107817,1.90999e-07,0.00107836,0.00139275,0.125162,0.0474599,0.172622,0.0904875,0.00340843,0.093896,-0.00490205
394.101,3.161,-0.26356,7.8259,0.00430406,0.173848,0.101904,0.000661816,1.55574e-08,0.000661831,0.00199317,0.12119,0.053663,0.174853,0.0901543,0.0044326,0.0945869,0.00186157
396.01,2.84316,-0.26769,7.64694,-0.000958175,0.176403,0.0943905,0.000405763,1.26677e-09,0.000405765,0.00301032,0.115297,0.0597319,0.175028,0.08972,0.0057488,0.0954688,-0.00399183
397.92,2.50062,-0.26084,7.45342,0.00239282,0.169889,0.100098,0.000248596,1.03125e-10,0.000248596,-0.00550522,0.106922,0.0654888,0.172411,0.0891871,0.00742981,0.0966169,-0.00180948
399.8301,2.18703,-0.27407,7.2533,0.00406844,0.164947,0.101381,0.000152237,8.39382e-12,0.000152237,0.00236878,0.0957244,0.0707885,0.166513,0.0885414,0.00955974,0.0981012,0.0041481
401.74,1.86608,-0.27866,7.06831,0.00286936,0.161596,0.0989826,9.32028e-05,6.83161e-13,9.32028e-05,-0.000619611,0.0819082,0.0755191,0.157427,0.0877626,0.0122315,0.099994,-0.00316934
403.65,1.56961,-0.28551,6.87176,0.00311023,0.144374,0.104606,5.70512e-05,5.56095e-14,5.70512e-05,0.00125293,0.0664589,0.0795506,0.146009,0.0868266,0.0155409,0.102368,0.000542845
405.56,1.30841,-0.28779,6.67719,-0.00573868,0.134394,0.103826,3.49186e-05,4.52888e-15,3.49186e-05,0.00387942,0.0509737,0.0824794,0.133453,0.0857067,0.0195768,0.105284,-0.0047732
407.469,1.07041,-0.27592,6.46521,-0.00119906,0.119518,0.108057,2.13708e-05,3.62332e-16,2.13708e-05,-0.00538184,0.0370643,0.0825354,0.1196,0.0843733,0.0244061,0.108779,-0.00234136
409.379,0.85676,-0.28368,6.24469,0.00548744,0.098679,0.121006,1.30788e-05,3.01956e-17,1.30788e-05,0.0011323,0.0257481,0.0732933,0.0990415,0.082795,0.0300555,0.11285,0.00325433
411.289,0.69172,-0.28731,6.03604,0.0014504,0.0615502,0.109423,8.00398e-06,0.0,8.00398e-06,0.00286776,0.0172605,0.0458411,0.0631017,0.0809397,0.0364915,0.117431,-0.00589727
413.199,0.61764,-0.28048,5.80588,-0.00526228,0.0288927,0.136682,4.89821e-06,0.0,4.89821e-06,-0.000496237,0.0112746,0.0166438,0.0279184,0.0787769,0.0436065,0.122383,-0.00625642
415.109,0.5715,-0.27546,5.5529,-0.00095822,0.0135668,0.111774,2.99754e-06,0.0,2.99754e-06,-0.00450726,0.00723399,0.0042338,0.0114678,0.0762793,0.0512151,0.127494,0.00699941
417.019,0.56321,-0.28688,5.32545,0.0040685,0.00386949,0.144908,1.83438e-06,0.0,1.83438e-06,0.00255521,0.00458657,0.00095594,0.00554251,0.0734269,0.0590681,0.132495,-0.00753951
418.9284,0.56234,-0.28898,5.0705,0.00382234,-0.0,0.12842,1.12257e-06,0.0,1.12257e-06,-0.00110214,0.00288567,0.000209351,0.00309502,0.07021,0.066882,0.137092,-0.00656349
420.838,0.56234,-0.2951,4.79161,0.00191642,0.000455533,0.138751,6.86967e-07,0.0,6.86967e-07,0.00167788,0.00180661,4.54768e-05,0.00185208,0.0666331,0.074379,0.141012,0.00975202
422.748,0.56016,-0.2951,4.54829,-0.00090583,0.00160223,0.129111,4.20396e-07,0.0,4.20396e-07,-0.0015079,0.00112753,9.85074e-06,0.00113738,0.062718,0.0813248,0.144043,-0.0141743
424.658,0.55712,-0.3006,4.25327,-0.000293137,0.00183785,0.163727,2.57265e-07,0.0,2.57265e-07,-0.00136808,0.000702335,2.13064e-06,0.000704466,0.058506,0.0875541,0.14606,0.00796995
426.568,0.55742,-0.31109,3.98732,0.0119645,-0.0013771,0.144437,1.57435e-07,0.0,1.57435e-07,0.00162305,0.000436948,4.60386e-07,0.000437409,0.0540576,0.0929798,0.147037,-0.0104703
428.478,0.55758,-0.31566,3.68318,0.00729377,-0.00183261,0.151998,9.63437e-08,0.0,9.63437e-08,-0.00275535,0.000271634,9.94064e-08,0.000271734,0.0494508,0.0975855,0.147036,0.0150955
430.387,0.55453,-0.33028,3.4341,-0.00375945,0.00617857,0.125487,5.89583e-08,0.0,5.89583e-08,0.00738598,0.000168785,2.14516e-08,0.000168806,0.0447753,0.101408,0.146184,-0.0113093
432.297,0.54923,-0.31796,3.14377,-0.00353436,-0.0,0.150647,3.608e-08,0.0,3.608e-08,-0.00287324,0.000104846,4.62715e-09,0.000104851,0.0401267,0.104519,0.144645,0.00347366
434.207,0.54792,-0.31612,2.86611,0.000958195,0.00160223,0.153082,2.20794e-08,0.0,2.20794e-08,-0.00125567,6.51169e-05,9.97741e-10,6.51179e-05,0.0355982,0.106999,0.142597,-0.000564778
436.117,0.54486,-0.31886,2.58639,0.00454487,0.000685932,0.145374,1.35117e-08,0.0,1.35117e-08,-0.00175191,4.04376e-05,2.15083e-10,4.04378e-05,0.0312737,0.108926,0.140199,-0.00426873
438.0267,0.54486,-0.32799,2.2911,0.00180644,-5.55112e-17,0.147259,8.26858e-09,0.0,8.26858e-09,0.00175191,2.51099e-05,4.63557e-11,2.511e-05,0.0272217,0.110352,0.137574,0.0120468
439.937,0.54486,-0.33073,2.03975,0.00129854,0.000225149,0.139049,5.06002e-09,0.0,5.06002e-09,0.0020014,1.55915e-05,9.98918e-12,1.55915e-05,0.0234923,0.111281,0.134773,-0.00586163
441.846,0.54399,-0.32617,1.76702,-0.00334588,0.000460774,0.141746,3.09652e-09,0.0,3.09652e-09,-0.000997957,9.68092e-06,2.1523e-12,9.68092e-06,0.0201155,0.111628,0.131743,0.00577938
443.756,0.54312,-0.32525,1.51537,-0.000476482,0.000685922,0.112602,1.89494e-09,0.0,1.89494e-09,-2.74164e-06,6.01089e-06,4.63688e-13,6.01089e-06,0.0171032,0.111147,0.128251,0.00713923
445.666,0.5488,-0.32434,1.28976,-0.00159699,-0.000403245,0.135441,1.15962e-09,0.0,1.15962e-09,0.00050172,3.73213e-06,9.98888e-14,3.73213e-06,0.0144516,0.109316,0.123768,-0.000290614
447.576,0.53875,-0.3216,1.06309,0.000109955,0.00406319,0.0970034,7.09639e-10,0.0,7.09639e-10,-0.00438388,2.31724e-06,2.15109e-14,2.31724e-06,0.0121445,0.105178,0.117323,0.00716939
449.486,0.53175,-0.33485,0.86257,0.00770232,0.00251856,0.107062,4.34269e-10,0.0,4.34269e-10,0.00266213,1.43875e-06,4.64465e-15,1.43875e-06,0.0101576,0.0972996,0.107457,0.00244554
451.396,0.53529,-0.33839,0.67097,0.00188498,-0.00320449,0.0970086,2.65754e-10,0.0,2.65754e-10,6.30577e-05,8.93298e-07,1.00793e-15,8.93298e-07,0.00846145,0.0842674,0.0927288,0.00685684
453.305,0.53942,-0.3417,0.50438,0.0014661,-0.00251855,0.0696293,1.6263e-10,0.0,1.6263e-10,0.000531878,5.54635e-07,2.19136e-16,5.54635e-07,0.00702424,0.0661906,0.0732148,0.011896
455.215,0.54181,-0.34307,0.38118,0.000235621,0.00023038,0.059508,9.95229e-11,0.0,9.95229e-11,1.0842e-17,3.44365e-07,4.38306e-17,3.44365e-07,0.00581419,0.0461113,0.0519255,0.00976847
457.125,0.54051,-0.34444,0.29361,0.000958201,0.000455538,0.0367363,6.09038e-11,0.0,6.09038e-11,0.00175465,2.1381e-07,0.0,2.1381e-07,0.00480084,0.0285551,0.0333559,0.00999876
459.035,0.53568,-0.33941,0.24251,-0.00334588,0.00091635,0.014771,3.72706e-11,0.0,3.72706e-11,-0.00225637,1.32751e-07,0.0,1.32751e-07,0.00395601,0.0161213,0.0200773,0.00916805
460.945,0.537,-0.34261,0.22485,0.00335109,-0.00411549,0.00686451,2.2808e-11,0.0,2.2808e-11,-0.00050172,8.24232e-08,0.0,8.24232e-08,0.00325432,0.00856625,0.0118206,0.00231669
462.854,0.55011,-0.34764,0.21564,0.00119384,-0.00274895,0.00326209,1.39575e-11,0.0,1.39575e-11,0.00137905,5.11753e-08,0.0,5.11753e-08,0.00267331,0.00439473,0.00706804,0.00206446
464.764,0.55316,-0.34764,0.21396,-0.00120952,-0.00160224,-0.000439825,8.54141e-12,0.0,8.54141e-12,0.00300758,3.17739e-08,0.0,3.17739e-08,0.00219348,0.00221243,0.00440591,0.00172175
466.674,0.55579,-0.33667,0.21856,-0.00429363,-0.000685932,-0.00351864,5.22699e-12,0.0,5.22699e-12,-0.00338318,1.97279e-08,0.0,1.97279e-08,0.00179804,0.00110297,0.00290102,0.000474304
468.584,0.55579,-0.33804,0.22489,0.00334582,-5.55112e-17,-0.00262328,3.1987e-12,0.0,3.1987e-12,-0.00275535,1.22487e-08,0.0,1.22487e-08,0.00147273,0.00054716,0.00201989,-0.00128583
470.494,0.55579,-0.34946,0.22653,0.0043093,0.00320444,-0.0,1.95747e-12,0.0,1.95747e-12,0.00237974,7.60503e-09,0.0,7.60503e-09,0.00120548,0.000270759,0.00147624,-0.000449629
472.404,0.54923,-0.3522,0.22653,0.000235626,0.000455538,-0.0,1.19788e-12,0.0,1.19788e-12,0.000625094,4.72184e-09,0.0,4.72184e-09,0.000986208,0.000133817,0.00112002,-0.000115149
474.313,0.5488,-0.35266,0.22611,-0.00238762,0.00274891,0.00043983,7.33047e-13,0.0,7.33047e-13,-0.00053462,2.93171e-09,0.0,2.93171e-09,0.000806464,6.60952e-05,0.000872559,-0.000115149
476.2233,0.54049,-0.35507,0.22527,0.000717415,0.000455567,0.000225153,4.48612e-13,0.0,4.48612e-13,0.00232491,1.82025e-09,0.0,1.82025e-09,0.000659243,3.26354e-05,0.000691879,0.000230298
478.133,0.54311,-0.349,0.22527,-0.00192162,0.00023038,0.00064403,2.74512e-13,0.0,2.74512e-13,-0.000789593,1.13016e-09,0.0,1.13016e-09,0.00053874,1.61116e-05,0.000554851,0.000457854
480.043,0.54748,-0.34581,0.22694,-0.00118857,-0.00297411,-0.00240336,1.67982e-13,0.0,1.67982e-13,-0.0027389,7.017e-10,0.0,7.017e-10,0.000440157,7.95338e-06,0.00044811,0.000512687
481.953,0.55666,-0.35261,0.23048,0.00717344,-0.0050319,-0.00438256,1.02817e-13,0.0,1.02817e-13,0.00235233,4.35674e-10,0.0,4.35674e-10,0.000359543,3.92596e-06,0.000363469,0.00242087
483.863,0.55841,-0.35083,0.24285,0.00597946,-0.000685927,-0.00395849,6.29135e-14,0.0,6.29135e-14,-0.00249763,2.70503e-10,0.0,2.70503e-10,0.000293646,1.93789e-06,0.000295584,-0.00235781
485.772,0.55588,-0.35816,0.24662,-0.00764993,0.00388515,-0.00174362,3.85029e-14,0.0,3.85029e-14,0.00364364,1.67951e-10,0.0,1.67951e-10,0.000239795,9.56544e-07,0.000240751,-0.000457854
487.682,0.54967,-0.3522,0.24872,-0.00646126,0.00183262,-0.000848243,2.35583e-14,0.0,2.35583e-14,0.00199591,1.04278e-10,0.0,1.04278e-10,0.000195798,4.72148e-07,0.00019627,-2.74164e-06
489.592,0.54569,-0.33896,0.25081,0.00502131,0.00160224,-0.00112576,1.44272e-14,0.0,1.44272e-14,-0.00939012,6.47444e-11,0.0,6.47444e-11,0.00015986,2.3305e-07,0.000160093,-0.000227556
491.502,0.54486,-0.35997,0.25207,0.00335115,-0.00276462,-0.000450302,8.82676e-15,0.0,8.82676e-15,0.00789044,4.01988e-11,0.0,4.01988e-11,0.000130509,1.15032e-07,0.000130624,-2.74164e-06
493.412,0.55229,-0.3522,0.25332,0.00103144,0.00120426,-0.000644039,5.38737e-15,0.0,5.38737e-15,-0.00218235,2.49588e-11,0.0,2.49588e-11,0.000106541,5.67789e-08,0.000106597,-0.00073476
495.3216,0.53527,-0.35239,0.25189,-0.00364434,0.00796411,0.00175408,3.31764e-15,0.0,3.31764e-15,0.000104182,1.54965e-11,0.0,1.54965e-11,8.69698e-05,2.80256e-08,8.69979e-05,-1.91915e-05
497.231,0.54006,-0.3522,0.25039,0.00485378,-0.00434597,-0.0,2.00885e-15,0.0,2.00885e-15,-0.005157,9.6215e-12,0.0,9.6215e-12,7.09914e-05,1.38332e-08,7.10052e-05,0.000411246
498.186,0.54093,-0.36151,0.25039,0.00974951,-0.000911071,-0.0,1.58273e-15,0.0,1.58273e-15,-0.00512684,7.58137e-12,0.0,7.58137e-12,6.41384e-05,9.71863e-09,6.41482e-05,-0.0